# file: r.LSST.pb
# comment: LSST Throughputs files created from syseng_throughputs repo
# comment: Version 1.1
# comment: sha1 acd2b1389ef7356e2125ef6f9dc40a5ffe2af05b
# comment: Aerosols added to atmosphere
# comment: Wavelen_cutoff_BLUE 536.90
# comment: Wavelen_cutoff_RED 706.00
# comment: Wavelength(nm)  Throughput(0-1)
# comment: xref and bandwidth computed from the passband itself
# xtype: lam
# description: full system QE
# bandwidth: 60.72 nm
# instrument: LSST
# ytype: qe
# xref: 622.3
# filter: r
# url: https://github.com/lsst/throughputs/tree/master/baseline
# xunit: nm
 536.500000    0.000000
 536.600000    0.000000
 536.700000    0.000000
 536.800000    0.000000
 536.900000    0.000000
 537.000000    0.000000
 537.100000    0.000827
 537.200000    0.001653
 537.300000    0.002480
 537.400000    0.003307
 537.500000    0.004134
 537.600000    0.004962
 537.700000    0.005813
 537.800000    0.006664
 537.900000    0.007494
 538.000000    0.008324
 538.100000    0.009153
 538.200000    0.009982
 538.300000    0.010811
 538.400000    0.011640
 538.500000    0.012470
 538.600000    0.013299
 538.700000    0.014129
 538.800000    0.014959
 538.900000    0.015811
 539.000000    0.016663
 539.100000    0.017493
 539.200000    0.018322
 539.300000    0.019152
 539.400000    0.019981
 539.500000    0.020810
 539.600000    0.021640
 539.700000    0.022469
 539.800000    0.023299
 539.900000    0.024128
 540.000000    0.024957
 540.100000    0.025807
 540.200000    0.026657
 540.300000    0.027484
 540.400000    0.028312
 540.500000    0.029139
 540.600000    0.029960
 540.700000    0.030780
 540.800000    0.031599
 540.900000    0.032418
 541.000000    0.033236
 541.100000    0.034067
 541.200000    0.034899
 541.300000    0.035752
 541.400000    0.036605
 541.500000    0.037437
 541.600000    0.038268
 541.700000    0.039101
 541.800000    0.039933
 541.900000    0.040765
 542.000000    0.041598
 542.100000    0.043254
 542.200000    0.044910
 542.300000    0.046588
 542.400000    0.048266
 542.500000    0.049922
 542.600000    0.051590
 542.700000    0.053258
 542.800000    0.054927
 542.900000    0.056618
 543.000000    0.058310
 543.100000    0.059968
 543.200000    0.061625
 543.300000    0.063282
 543.400000    0.064939
 543.500000    0.066618
 543.600000    0.068297
 543.700000    0.069954
 543.800000    0.071611
 543.900000    0.073268
 544.000000    0.074925
 544.100000    0.076604
 544.200000    0.078284
 544.300000    0.079943
 544.400000    0.081601
 544.500000    0.083260
 544.600000    0.084919
 544.700000    0.086578
 544.800000    0.088237
 544.900000    0.089919
 545.000000    0.091601
 545.100000    0.093266
 545.200000    0.094932
 545.300000    0.096598
 545.400000    0.098265
 545.500000    0.099953
 545.600000    0.101642
 545.700000    0.103310
 545.800000    0.104978
 545.900000    0.106646
 546.000000    0.108315
 546.100000    0.110002
 546.200000    0.111689
 546.300000    0.113354
 546.400000    0.115019
 546.500000    0.116685
 546.600000    0.118350
 546.700000    0.120038
 546.800000    0.121726
 546.900000    0.123392
 547.000000    0.125058
 547.100000    0.126770
 547.200000    0.128483
 547.300000    0.130219
 547.400000    0.131957
 547.500000    0.133675
 547.600000    0.135363
 547.700000    0.137051
 547.800000    0.138741
 547.900000    0.140452
 548.000000    0.142165
 548.100000    0.143829
 548.200000    0.145492
 548.300000    0.147156
 548.400000    0.148820
 548.500000    0.150505
 548.600000    0.152191
 548.700000    0.153854
 548.800000    0.155518
 548.900000    0.157181
 549.000000    0.158845
 549.100000    0.160530
 549.200000    0.162216
 549.300000    0.163879
 549.400000    0.165543
 549.500000    0.167206
 549.600000    0.168908
 549.700000    0.170610
 549.800000    0.172313
 549.900000    0.174039
 550.000000    0.175765
 550.100000    0.177455
 550.200000    0.179144
 550.300000    0.180835
 550.400000    0.182526
 550.500000    0.184239
 550.600000    0.185952
 550.700000    0.187644
 550.800000    0.189337
 550.900000    0.191030
 551.000000    0.192723
 551.100000    0.194417
 551.200000    0.196112
 551.300000    0.197785
 551.400000    0.199458
 551.500000    0.201131
 551.600000    0.202804
 551.700000    0.204499
 551.800000    0.206194
 551.900000    0.207867
 552.000000    0.209540
 552.100000    0.211236
 552.200000    0.212932
 552.300000    0.214651
 552.400000    0.216370
 552.500000    0.218067
 552.600000    0.219765
 552.700000    0.221463
 552.800000    0.223162
 552.900000    0.224883
 553.000000    0.226605
 553.100000    0.228280
 553.200000    0.229955
 553.300000    0.231630
 553.400000    0.233305
 553.500000    0.235002
 553.600000    0.236699
 553.700000    0.238374
 553.800000    0.240049
 553.900000    0.241725
 554.000000    0.243400
 554.100000    0.245100
 554.200000    0.246801
 554.300000    0.248480
 554.400000    0.250158
 554.500000    0.251837
 554.600000    0.253573
 554.700000    0.255310
 554.800000    0.257048
 554.900000    0.258809
 555.000000    0.260570
 555.100000    0.262273
 555.200000    0.263975
 555.300000    0.265678
 555.400000    0.267381
 555.500000    0.269106
 555.600000    0.270769
 555.700000    0.272409
 555.800000    0.274048
 555.900000    0.275688
 556.000000    0.277326
 556.100000    0.278976
 556.200000    0.280624
 556.300000    0.282250
 556.400000    0.283876
 556.500000    0.285501
 556.600000    0.287190
 556.700000    0.288901
 556.800000    0.290613
 556.900000    0.292302
 557.000000    0.293992
 557.100000    0.295645
 557.200000    0.297297
 557.300000    0.298972
 557.400000    0.300646
 557.500000    0.302298
 557.600000    0.303949
 557.700000    0.305601
 557.800000    0.307252
 557.900000    0.308925
 558.000000    0.310597
 558.100000    0.312257
 558.200000    0.313917
 558.300000    0.315576
 558.400000    0.317236
 558.500000    0.318917
 558.600000    0.320599
 558.700000    0.322258
 558.800000    0.323917
 558.900000    0.325575
 559.000000    0.327234
 559.100000    0.328891
 559.200000    0.330547
 559.300000    0.332181
 559.400000    0.333815
 559.500000    0.335448
 559.600000    0.337005
 559.700000    0.338561
 559.800000    0.340116
 559.900000    0.341691
 560.000000    0.343266
 560.100000    0.344950
 560.200000    0.346635
 560.300000    0.348319
 560.400000    0.350004
 560.500000    0.351711
 560.600000    0.353418
 560.700000    0.355103
 560.800000    0.356789
 560.900000    0.358475
 561.000000    0.360160
 561.100000    0.361847
 561.200000    0.363533
 561.300000    0.365198
 561.400000    0.366862
 561.500000    0.368526
 561.600000    0.370107
 561.700000    0.371709
 561.800000    0.373310
 561.900000    0.374889
 562.000000    0.376466
 562.100000    0.378122
 562.200000    0.379779
 562.300000    0.381457
 562.400000    0.383135
 562.500000    0.384791
 562.600000    0.386447
 562.700000    0.387905
 562.800000    0.389364
 562.900000    0.390186
 563.000000    0.391009
 563.100000    0.391856
 563.200000    0.392704
 563.300000    0.393552
 563.400000    0.394399
 563.500000    0.395247
 563.600000    0.396095
 563.700000    0.396965
 563.800000    0.397835
 563.900000    0.398683
 564.000000    0.399531
 564.100000    0.400328
 564.200000    0.401125
 564.300000    0.401922
 564.400000    0.402719
 564.500000    0.403516
 564.600000    0.404404
 564.700000    0.405292
 564.800000    0.406180
 564.900000    0.407069
 565.000000    0.407958
 565.100000    0.408821
 565.200000    0.409685
 565.300000    0.410526
 565.400000    0.411367
 565.500000    0.412209
 565.600000    0.413050
 565.700000    0.413892
 565.800000    0.414733
 565.900000    0.415575
 566.000000    0.416416
 566.100000    0.417318
 566.200000    0.418220
 566.300000    0.418507
 566.400000    0.418795
 566.500000    0.418863
 566.600000    0.418931
 566.700000    0.418999
 566.800000    0.419067
 566.900000    0.419135
 567.000000    0.419204
 567.100000    0.419239
 567.200000    0.419274
 567.300000    0.419309
 567.400000    0.419345
 567.500000    0.419380
 567.600000    0.419415
 567.700000    0.419450
 567.800000    0.419485
 567.900000    0.419521
 568.000000    0.419556
 568.100000    0.419524
 568.200000    0.419492
 568.300000    0.419460
 568.400000    0.419428
 568.500000    0.419396
 568.600000    0.419364
 568.700000    0.419332
 568.800000    0.419300
 568.900000    0.419267
 569.000000    0.419235
 569.100000    0.419286
 569.200000    0.419337
 569.300000    0.419387
 569.400000    0.419438
 569.500000    0.419489
 569.600000    0.419540
 569.700000    0.419590
 569.800000    0.419641
 569.900000    0.419692
 570.000000    0.419743
 570.100000    0.419896
 570.200000    0.420050
 570.300000    0.420204
 570.400000    0.420357
 570.500000    0.420511
 570.600000    0.420569
 570.700000    0.420628
 570.800000    0.420686
 570.900000    0.420745
 571.000000    0.420803
 571.100000    0.420869
 571.200000    0.420934
 571.300000    0.420999
 571.400000    0.421064
 571.500000    0.421129
 571.600000    0.421195
 571.700000    0.421260
 571.800000    0.421325
 571.900000    0.421390
 572.000000    0.421456
 572.100000    0.421494
 572.200000    0.421533
 572.300000    0.421572
 572.400000    0.421611
 572.500000    0.421650
 572.600000    0.421689
 572.700000    0.421728
 572.800000    0.421767
 572.900000    0.421806
 573.000000    0.421844
 573.100000    0.421997
 573.200000    0.422149
 573.300000    0.422302
 573.400000    0.422454
 573.500000    0.422606
 573.600000    0.422663
 573.700000    0.422720
 573.800000    0.422777
 573.900000    0.422834
 574.000000    0.422891
 574.100000    0.422988
 574.200000    0.423085
 574.300000    0.423182
 574.400000    0.423279
 574.500000    0.423376
 574.600000    0.423473
 574.700000    0.423570
 574.800000    0.423667
 574.900000    0.423764
 575.000000    0.423861
 575.100000    0.424006
 575.200000    0.424151
 575.300000    0.424296
 575.400000    0.424441
 575.500000    0.424586
 575.600000    0.424635
 575.700000    0.424684
 575.800000    0.424733
 575.900000    0.424782
 576.000000    0.424831
 576.100000    0.424979
 576.200000    0.425128
 576.300000    0.425276
 576.400000    0.425424
 576.500000    0.425572
 576.600000    0.425625
 576.700000    0.425677
 576.800000    0.425729
 576.900000    0.425781
 577.000000    0.425834
 577.100000    0.425960
 577.200000    0.426085
 577.300000    0.426211
 577.400000    0.426337
 577.500000    0.426463
 577.600000    0.426493
 577.700000    0.426523
 577.800000    0.426553
 577.900000    0.426582
 578.000000    0.426612
 578.100000    0.426770
 578.200000    0.426927
 578.300000    0.427085
 578.400000    0.427243
 578.500000    0.427401
 578.600000    0.427462
 578.700000    0.427524
 578.800000    0.427585
 578.900000    0.427647
 579.000000    0.427708
 579.100000    0.427856
 579.200000    0.428005
 579.300000    0.428153
 579.400000    0.428301
 579.500000    0.428449
 579.600000    0.428501
 579.700000    0.428553
 579.800000    0.428604
 579.900000    0.428656
 580.000000    0.428708
 580.100000    0.428741
 580.200000    0.428774
 580.300000    0.428807
 580.400000    0.428841
 580.500000    0.428874
 580.600000    0.429003
 580.700000    0.429133
 580.800000    0.429263
 580.900000    0.429392
 581.000000    0.429522
 581.100000    0.429513
 581.200000    0.429505
 581.300000    0.429496
 581.400000    0.429487
 581.500000    0.429478
 581.600000    0.429566
 581.700000    0.429654
 581.800000    0.429742
 581.900000    0.429830
 582.000000    0.429917
 582.100000    0.429944
 582.200000    0.429972
 582.300000    0.429999
 582.400000    0.430026
 582.500000    0.430053
 582.600000    0.430177
 582.700000    0.430300
 582.800000    0.430424
 582.900000    0.430547
 583.000000    0.430671
 583.100000    0.430721
 583.200000    0.430771
 583.300000    0.430820
 583.400000    0.430870
 583.500000    0.430920
 583.600000    0.430969
 583.700000    0.431018
 583.800000    0.431067
 583.900000    0.431116
 584.000000    0.431165
 584.100000    0.431179
 584.200000    0.431194
 584.300000    0.431208
 584.400000    0.431223
 584.500000    0.431239
 584.600000    0.431351
 584.700000    0.431464
 584.800000    0.431577
 584.900000    0.431691
 585.000000    0.431806
 585.100000    0.431843
 585.200000    0.431882
 585.300000    0.431921
 585.400000    0.431962
 585.500000    0.432004
 585.600000    0.432046
 585.700000    0.432090
 585.800000    0.432135
 585.900000    0.432181
 586.000000    0.432228
 586.100000    0.432223
 586.200000    0.432219
 586.300000    0.432216
 586.400000    0.432212
 586.500000    0.432209
 586.600000    0.432206
 586.700000    0.432202
 586.800000    0.432199
 586.900000    0.432195
 587.000000    0.432192
 587.100000    0.432157
 587.200000    0.432122
 587.300000    0.432087
 587.400000    0.432052
 587.500000    0.432017
 587.600000    0.431884
 587.700000    0.431751
 587.800000    0.431619
 587.900000    0.431486
 588.000000    0.431354
 588.100000    0.431079
 588.200000    0.430805
 588.300000    0.430530
 588.400000    0.430256
 588.500000    0.429981
 588.600000    0.429805
 588.700000    0.429630
 588.800000    0.429455
 588.900000    0.429279
 589.000000    0.429103
 589.100000    0.429104
 589.200000    0.429103
 589.300000    0.429101
 589.400000    0.429098
 589.500000    0.429092
 589.600000    0.428988
 589.700000    0.428882
 589.800000    0.428774
 589.900000    0.428664
 590.000000    0.428553
 590.100000    0.428682
 590.200000    0.428810
 590.300000    0.428935
 590.400000    0.429059
 590.500000    0.429181
 590.600000    0.429301
 590.700000    0.429419
 590.800000    0.429535
 590.900000    0.429650
 591.000000    0.429764
 591.100000    0.429644
 591.200000    0.429524
 591.300000    0.429404
 591.400000    0.429284
 591.500000    0.429165
 591.600000    0.428950
 591.700000    0.428735
 591.800000    0.428520
 591.900000    0.428306
 592.000000    0.428092
 592.100000    0.428025
 592.200000    0.427958
 592.300000    0.427892
 592.400000    0.427826
 592.500000    0.427760
 592.600000    0.427983
 592.700000    0.428207
 592.800000    0.428430
 592.900000    0.428652
 593.000000    0.428875
 593.100000    0.428911
 593.200000    0.428946
 593.300000    0.428982
 593.400000    0.429017
 593.500000    0.429053
 593.600000    0.428798
 593.700000    0.428544
 593.800000    0.428289
 593.900000    0.428035
 594.000000    0.427782
 594.100000    0.427368
 594.200000    0.426955
 594.300000    0.426543
 594.400000    0.426133
 594.500000    0.425724
 594.600000    0.425896
 594.700000    0.426068
 594.800000    0.426242
 594.900000    0.426418
 595.000000    0.426595
 595.100000    0.426839
 595.200000    0.427084
 595.300000    0.427331
 595.400000    0.427579
 595.500000    0.427829
 595.600000    0.427887
 595.700000    0.427947
 595.800000    0.428008
 595.900000    0.428070
 596.000000    0.428134
 596.100000    0.428096
 596.200000    0.428058
 596.300000    0.428021
 596.400000    0.427984
 596.500000    0.427947
 596.600000    0.427813
 596.700000    0.427679
 596.800000    0.427545
 596.900000    0.427411
 597.000000    0.427277
 597.100000    0.427248
 597.200000    0.427218
 597.300000    0.427188
 597.400000    0.427158
 597.500000    0.427128
 597.600000    0.427193
 597.700000    0.427259
 597.800000    0.427325
 597.900000    0.427391
 598.000000    0.427457
 598.100000    0.427459
 598.200000    0.427461
 598.300000    0.427463
 598.400000    0.427465
 598.500000    0.427468
 598.600000    0.427471
 598.700000    0.427475
 598.800000    0.427480
 598.900000    0.427484
 599.000000    0.427488
 599.100000    0.427550
 599.200000    0.427610
 599.300000    0.427670
 599.400000    0.427728
 599.500000    0.427784
 599.600000    0.427742
 599.700000    0.427698
 599.800000    0.427653
 599.900000    0.427605
 600.000000    0.427556
 600.100000    0.427594
 600.200000    0.427631
 600.300000    0.427665
 600.400000    0.427698
 600.500000    0.427729
 600.600000    0.427662
 600.700000    0.427593
 600.800000    0.427523
 600.900000    0.427451
 601.000000    0.427378
 601.100000    0.427369
 601.200000    0.427360
 601.300000    0.427351
 601.400000    0.427342
 601.500000    0.427333
 601.600000    0.427326
 601.700000    0.427319
 601.800000    0.427312
 601.900000    0.427305
 602.000000    0.427298
 602.100000    0.427319
 602.200000    0.427340
 602.300000    0.427361
 602.400000    0.427382
 602.500000    0.427404
 602.600000    0.427329
 602.700000    0.427254
 602.800000    0.427179
 602.900000    0.427104
 603.000000    0.427028
 603.100000    0.427015
 603.200000    0.427002
 603.300000    0.426988
 603.400000    0.426975
 603.500000    0.426962
 603.600000    0.427044
 603.700000    0.427127
 603.800000    0.427209
 603.900000    0.427292
 604.000000    0.427376
 604.100000    0.427339
 604.200000    0.427302
 604.300000    0.427267
 604.400000    0.427232
 604.500000    0.427199
 604.600000    0.427262
 604.700000    0.427327
 604.800000    0.427392
 604.900000    0.427459
 605.000000    0.427526
 605.100000    0.427518
 605.200000    0.427510
 605.300000    0.427503
 605.400000    0.427496
 605.500000    0.427489
 605.600000    0.427579
 605.700000    0.427669
 605.800000    0.427759
 605.900000    0.427849
 606.000000    0.427940
 606.100000    0.427946
 606.200000    0.427951
 606.300000    0.427957
 606.400000    0.427962
 606.500000    0.427967
 606.600000    0.428068
 606.700000    0.428168
 606.800000    0.428269
 606.900000    0.428369
 607.000000    0.428470
 607.100000    0.428460
 607.200000    0.428451
 607.300000    0.428442
 607.400000    0.428432
 607.500000    0.428423
 607.600000    0.428509
 607.700000    0.428595
 607.800000    0.428682
 607.900000    0.428768
 608.000000    0.428854
 608.100000    0.428890
 608.200000    0.428926
 608.300000    0.428962
 608.400000    0.428997
 608.500000    0.429033
 608.600000    0.429165
 608.700000    0.429296
 608.800000    0.429428
 608.900000    0.429559
 609.000000    0.429690
 609.100000    0.429742
 609.200000    0.429794
 609.300000    0.429846
 609.400000    0.429898
 609.500000    0.429949
 609.600000    0.430097
 609.700000    0.430244
 609.800000    0.430392
 609.900000    0.430540
 610.000000    0.430687
 610.100000    0.430838
 610.200000    0.430990
 610.300000    0.431141
 610.400000    0.431292
 610.500000    0.431444
 610.600000    0.431499
 610.700000    0.431554
 610.800000    0.431610
 610.900000    0.431665
 611.000000    0.431721
 611.100000    0.431848
 611.200000    0.431974
 611.300000    0.432101
 611.400000    0.432228
 611.500000    0.432355
 611.600000    0.432386
 611.700000    0.432417
 611.800000    0.432447
 611.900000    0.432478
 612.000000    0.432509
 612.100000    0.432709
 612.200000    0.432909
 612.300000    0.433109
 612.400000    0.433309
 612.500000    0.433508
 612.600000    0.433612
 612.700000    0.433716
 612.800000    0.433820
 612.900000    0.433924
 613.000000    0.434028
 613.100000    0.434162
 613.200000    0.434297
 613.300000    0.434431
 613.400000    0.434566
 613.500000    0.434700
 613.600000    0.434835
 613.700000    0.434969
 613.800000    0.435104
 613.900000    0.435238
 614.000000    0.435373
 614.100000    0.435454
 614.200000    0.435536
 614.300000    0.435617
 614.400000    0.435698
 614.500000    0.435780
 614.600000    0.435958
 614.700000    0.436136
 614.800000    0.436313
 614.900000    0.436491
 615.000000    0.436669
 615.100000    0.436717
 615.200000    0.436764
 615.300000    0.436811
 615.400000    0.436858
 615.500000    0.436906
 615.600000    0.437049
 615.700000    0.437193
 615.800000    0.437337
 615.900000    0.437481
 616.000000    0.437625
 616.100000    0.437737
 616.200000    0.437849
 616.300000    0.437961
 616.400000    0.438073
 616.500000    0.438185
 616.600000    0.438394
 616.700000    0.438603
 616.800000    0.438812
 616.900000    0.439021
 617.000000    0.439230
 617.100000    0.439268
 617.200000    0.439307
 617.300000    0.439345
 617.400000    0.439383
 617.500000    0.439422
 617.600000    0.439557
 617.700000    0.439692
 617.800000    0.439827
 617.900000    0.439963
 618.000000    0.440098
 618.100000    0.440177
 618.200000    0.440255
 618.300000    0.440334
 618.400000    0.440412
 618.500000    0.440491
 618.600000    0.440570
 618.700000    0.440648
 618.800000    0.440727
 618.900000    0.440805
 619.000000    0.440884
 619.100000    0.441030
 619.200000    0.441176
 619.300000    0.441322
 619.400000    0.441468
 619.500000    0.441614
 619.600000    0.441662
 619.700000    0.441711
 619.800000    0.441760
 619.900000    0.441809
 620.000000    0.441858
 620.100000    0.441982
 620.200000    0.442107
 620.300000    0.442231
 620.400000    0.442356
 620.500000    0.442481
 620.600000    0.442508
 620.700000    0.442535
 620.800000    0.442563
 620.900000    0.442590
 621.000000    0.442618
 621.100000    0.442674
 621.200000    0.442730
 621.300000    0.442786
 621.400000    0.442842
 621.500000    0.442898
 621.600000    0.443052
 621.700000    0.443205
 621.800000    0.443359
 621.900000    0.443512
 622.000000    0.443666
 622.100000    0.443711
 622.200000    0.443757
 622.300000    0.443802
 622.400000    0.443848
 622.500000    0.443894
 622.600000    0.444037
 622.700000    0.444180
 622.800000    0.444323
 622.900000    0.444466
 623.000000    0.444609
 623.100000    0.444633
 623.200000    0.444658
 623.300000    0.444682
 623.400000    0.444707
 623.500000    0.444731
 623.600000    0.444755
 623.700000    0.444779
 623.800000    0.444803
 623.900000    0.444826
 624.000000    0.444850
 624.100000    0.444940
 624.200000    0.445031
 624.300000    0.445121
 624.400000    0.445213
 624.500000    0.445304
 624.600000    0.445298
 624.700000    0.445293
 624.800000    0.445288
 624.900000    0.445284
 625.000000    0.445280
 625.100000    0.445334
 625.200000    0.445388
 625.300000    0.445444
 625.400000    0.445500
 625.500000    0.445557
 625.600000    0.445714
 625.700000    0.445871
 625.800000    0.446030
 625.900000    0.446190
 626.000000    0.446350
 626.100000    0.446351
 626.200000    0.446352
 626.300000    0.446354
 626.400000    0.446356
 626.500000    0.446358
 626.600000    0.446263
 626.700000    0.446167
 626.800000    0.446071
 626.900000    0.445975
 627.000000    0.445880
 627.100000    0.444991
 627.200000    0.444101
 627.300000    0.443212
 627.400000    0.442322
 627.500000    0.441433
 627.600000    0.440054
 627.700000    0.438676
 627.800000    0.437299
 627.900000    0.435921
 628.000000    0.434544
 628.100000    0.435039
 628.200000    0.435535
 628.300000    0.436030
 628.400000    0.436526
 628.500000    0.437022
 628.600000    0.437813
 628.700000    0.438604
 628.800000    0.439395
 628.900000    0.440186
 629.000000    0.440977
 629.100000    0.440942
 629.200000    0.440906
 629.300000    0.440869
 629.400000    0.440830
 629.500000    0.440789
 629.600000    0.440844
 629.700000    0.440897
 629.800000    0.440948
 629.900000    0.440997
 630.000000    0.441044
 630.100000    0.441416
 630.200000    0.441785
 630.300000    0.442153
 630.400000    0.442519
 630.500000    0.442882
 630.600000    0.443147
 630.700000    0.443409
 630.800000    0.443670
 630.900000    0.443929
 631.000000    0.444187
 631.100000    0.444357
 631.200000    0.444526
 631.300000    0.444694
 631.400000    0.444863
 631.500000    0.445033
 631.600000    0.445204
 631.700000    0.445375
 631.800000    0.445546
 631.900000    0.445717
 632.000000    0.445889
 632.100000    0.446059
 632.200000    0.446229
 632.300000    0.446400
 632.400000    0.446570
 632.500000    0.446741
 632.600000    0.446814
 632.700000    0.446887
 632.800000    0.446960
 632.900000    0.447032
 633.000000    0.447105
 633.100000    0.447123
 633.200000    0.447141
 633.300000    0.447159
 633.400000    0.447177
 633.500000    0.447196
 633.600000    0.447214
 633.700000    0.447232
 633.800000    0.447250
 633.900000    0.447269
 634.000000    0.447288
 634.100000    0.447263
 634.200000    0.447238
 634.300000    0.447215
 634.400000    0.447193
 634.500000    0.447171
 634.600000    0.447249
 634.700000    0.447327
 634.800000    0.447406
 634.900000    0.447487
 635.000000    0.447568
 635.100000    0.447560
 635.200000    0.447553
 635.300000    0.447547
 635.400000    0.447541
 635.500000    0.447535
 635.600000    0.447627
 635.700000    0.447719
 635.800000    0.447812
 635.900000    0.447905
 636.000000    0.447998
 636.100000    0.447933
 636.200000    0.447867
 636.300000    0.447802
 636.400000    0.447736
 636.500000    0.447670
 636.600000    0.447701
 636.700000    0.447732
 636.800000    0.447763
 636.900000    0.447794
 637.000000    0.447825
 637.100000    0.447809
 637.200000    0.447794
 637.300000    0.447779
 637.400000    0.447764
 637.500000    0.447749
 637.600000    0.447831
 637.700000    0.447913
 637.800000    0.447995
 637.900000    0.448077
 638.000000    0.448158
 638.100000    0.448147
 638.200000    0.448136
 638.300000    0.448125
 638.400000    0.448114
 638.500000    0.448102
 638.600000    0.448188
 638.700000    0.448274
 638.800000    0.448360
 638.900000    0.448446
 639.000000    0.448531
 639.100000    0.448512
 639.200000    0.448493
 639.300000    0.448475
 639.400000    0.448456
 639.500000    0.448437
 639.600000    0.448418
 639.700000    0.448399
 639.800000    0.448380
 639.900000    0.448361
 640.000000    0.448342
 640.100000    0.448427
 640.200000    0.448512
 640.300000    0.448597
 640.400000    0.448682
 640.500000    0.448767
 640.600000    0.448755
 640.700000    0.448743
 640.800000    0.448731
 640.900000    0.448720
 641.000000    0.448708
 641.100000    0.448795
 641.200000    0.448882
 641.300000    0.448969
 641.400000    0.449057
 641.500000    0.449144
 641.600000    0.449134
 641.700000    0.449125
 641.800000    0.449115
 641.900000    0.449105
 642.000000    0.449096
 642.100000    0.449082
 642.200000    0.449067
 642.300000    0.449053
 642.400000    0.449039
 642.500000    0.449025
 642.600000    0.449108
 642.700000    0.449191
 642.800000    0.449274
 642.900000    0.449357
 643.000000    0.449439
 643.100000    0.449430
 643.200000    0.449421
 643.300000    0.449412
 643.400000    0.449403
 643.500000    0.449394
 643.600000    0.449385
 643.700000    0.449376
 643.800000    0.449367
 643.900000    0.449357
 644.000000    0.449348
 644.100000    0.449491
 644.200000    0.449634
 644.300000    0.449778
 644.400000    0.449921
 644.500000    0.450064
 644.600000    0.450110
 644.700000    0.450156
 644.800000    0.450202
 644.900000    0.450249
 645.000000    0.450295
 645.100000    0.450287
 645.200000    0.450279
 645.300000    0.450271
 645.400000    0.450263
 645.500000    0.450255
 645.600000    0.450150
 645.700000    0.450045
 645.800000    0.449940
 645.900000    0.449835
 646.000000    0.449730
 646.100000    0.449608
 646.200000    0.449485
 646.300000    0.449362
 646.400000    0.449239
 646.500000    0.449117
 646.600000    0.448897
 646.700000    0.448677
 646.800000    0.448458
 646.900000    0.448238
 647.000000    0.448019
 647.100000    0.447974
 647.200000    0.447930
 647.300000    0.447885
 647.400000    0.447840
 647.500000    0.447796
 647.600000    0.447751
 647.700000    0.447706
 647.800000    0.447661
 647.900000    0.447617
 648.000000    0.447572
 648.100000    0.447748
 648.200000    0.447925
 648.300000    0.448101
 648.400000    0.448278
 648.500000    0.448454
 648.600000    0.448534
 648.700000    0.448614
 648.800000    0.448695
 648.900000    0.448775
 649.000000    0.448856
 649.100000    0.448898
 649.200000    0.448941
 649.300000    0.448983
 649.400000    0.449024
 649.500000    0.449064
 649.600000    0.449395
 649.700000    0.449725
 649.800000    0.450054
 649.900000    0.450382
 650.000000    0.450709
 650.100000    0.450835
 650.200000    0.450959
 650.300000    0.451083
 650.400000    0.451205
 650.500000    0.451327
 650.600000    0.451157
 650.700000    0.450986
 650.800000    0.450815
 650.900000    0.450644
 651.000000    0.450472
 651.100000    0.450186
 651.200000    0.449899
 651.300000    0.449612
 651.400000    0.449325
 651.500000    0.449039
 651.600000    0.448946
 651.700000    0.448853
 651.800000    0.448760
 651.900000    0.448666
 652.000000    0.448572
 652.100000    0.448890
 652.200000    0.449208
 652.300000    0.449525
 652.400000    0.449841
 652.500000    0.450157
 652.600000    0.450279
 652.700000    0.450401
 652.800000    0.450522
 652.900000    0.450643
 653.000000    0.450764
 653.100000    0.450724
 653.200000    0.450684
 653.300000    0.450644
 653.400000    0.450605
 653.500000    0.450565
 653.600000    0.450623
 653.700000    0.450680
 653.800000    0.450737
 653.900000    0.450795
 654.000000    0.450853
 654.100000    0.450704
 654.200000    0.450555
 654.300000    0.450407
 654.400000    0.450260
 654.500000    0.450115
 654.600000    0.450067
 654.700000    0.450020
 654.800000    0.449974
 654.900000    0.449929
 655.000000    0.449886
 655.100000    0.449887
 655.200000    0.449890
 655.300000    0.449894
 655.400000    0.449899
 655.500000    0.449904
 655.600000    0.450007
 655.700000    0.450110
 655.800000    0.450214
 655.900000    0.450319
 656.000000    0.450424
 656.100000    0.450524
 656.200000    0.450624
 656.300000    0.450724
 656.400000    0.450824
 656.500000    0.450923
 656.600000    0.451022
 656.700000    0.451121
 656.800000    0.451220
 656.900000    0.451319
 657.000000    0.451418
 657.100000    0.451367
 657.200000    0.451315
 657.300000    0.451263
 657.400000    0.451212
 657.500000    0.451160
 657.600000    0.451205
 657.700000    0.451250
 657.800000    0.451294
 657.900000    0.451339
 658.000000    0.451384
 658.100000    0.451532
 658.200000    0.451680
 658.300000    0.451828
 658.400000    0.451976
 658.500000    0.452124
 658.600000    0.452272
 658.700000    0.452420
 658.800000    0.452568
 658.900000    0.452716
 659.000000    0.452864
 659.100000    0.452866
 659.200000    0.452868
 659.300000    0.452870
 659.400000    0.452871
 659.500000    0.452873
 659.600000    0.452971
 659.700000    0.453070
 659.800000    0.453168
 659.900000    0.453266
 660.000000    0.453365
 660.100000    0.453347
 660.200000    0.453330
 660.300000    0.453313
 660.400000    0.453295
 660.500000    0.453278
 660.600000    0.453357
 660.700000    0.453436
 660.800000    0.453515
 660.900000    0.453594
 661.000000    0.453673
 661.100000    0.453631
 661.200000    0.453589
 661.300000    0.453547
 661.400000    0.453505
 661.500000    0.453464
 661.600000    0.453518
 661.700000    0.453573
 661.800000    0.453627
 661.900000    0.453682
 662.000000    0.453736
 662.100000    0.453727
 662.200000    0.453718
 662.300000    0.453709
 662.400000    0.453700
 662.500000    0.453691
 662.600000    0.453682
 662.700000    0.453673
 662.800000    0.453664
 662.900000    0.453655
 663.000000    0.453646
 663.100000    0.453692
 663.200000    0.453738
 663.300000    0.453783
 663.400000    0.453829
 663.500000    0.453875
 663.600000    0.453825
 663.700000    0.453775
 663.800000    0.453726
 663.900000    0.453677
 664.000000    0.453627
 664.100000    0.453589
 664.200000    0.453551
 664.300000    0.453512
 664.400000    0.453472
 664.500000    0.453432
 664.600000    0.453487
 664.700000    0.453542
 664.800000    0.453595
 664.900000    0.453647
 665.000000    0.453699
 665.100000    0.453687
 665.200000    0.453675
 665.300000    0.453662
 665.400000    0.453647
 665.500000    0.453632
 665.600000    0.453616
 665.700000    0.453599
 665.800000    0.453582
 665.900000    0.453564
 666.000000    0.453546
 666.100000    0.453574
 666.200000    0.453603
 666.300000    0.453631
 666.400000    0.453660
 666.500000    0.453689
 666.600000    0.453623
 666.700000    0.453557
 666.800000    0.453491
 666.900000    0.453425
 667.000000    0.453359
 667.100000    0.453297
 667.200000    0.453234
 667.300000    0.453171
 667.400000    0.453108
 667.500000    0.453045
 667.600000    0.453076
 667.700000    0.453106
 667.800000    0.453136
 667.900000    0.453165
 668.000000    0.453194
 668.100000    0.453170
 668.200000    0.453145
 668.300000    0.453121
 668.400000    0.453096
 668.500000    0.453072
 668.600000    0.453046
 668.700000    0.453021
 668.800000    0.452995
 668.900000    0.452970
 669.000000    0.452945
 669.100000    0.453030
 669.200000    0.453117
 669.300000    0.453204
 669.400000    0.453293
 669.500000    0.453383
 669.600000    0.453380
 669.700000    0.453377
 669.800000    0.453376
 669.900000    0.453377
 670.000000    0.453378
 670.100000    0.453302
 670.200000    0.453227
 670.300000    0.453153
 670.400000    0.453080
 670.500000    0.453007
 670.600000    0.453031
 670.700000    0.453055
 670.800000    0.453080
 670.900000    0.453106
 671.000000    0.453132
 671.100000    0.453058
 671.200000    0.452984
 671.300000    0.452911
 671.400000    0.452837
 671.500000    0.452763
 671.600000    0.452688
 671.700000    0.452613
 671.800000    0.452539
 671.900000    0.452464
 672.000000    0.452389
 672.100000    0.452405
 672.200000    0.452422
 672.300000    0.452438
 672.400000    0.452454
 672.500000    0.452471
 672.600000    0.452391
 672.700000    0.452312
 672.800000    0.452233
 672.900000    0.452154
 673.000000    0.452074
 673.100000    0.452024
 673.200000    0.451973
 673.300000    0.451922
 673.400000    0.451872
 673.500000    0.451821
 673.600000    0.451770
 673.700000    0.451719
 673.800000    0.451669
 673.900000    0.451618
 674.000000    0.451567
 674.100000    0.451585
 674.200000    0.451603
 674.300000    0.451621
 674.400000    0.451639
 674.500000    0.451657
 674.600000    0.451580
 674.700000    0.451502
 674.800000    0.451425
 674.900000    0.451348
 675.000000    0.451270
 675.100000    0.451204
 675.200000    0.451138
 675.300000    0.451072
 675.400000    0.451005
 675.500000    0.450939
 675.600000    0.450873
 675.700000    0.450806
 675.800000    0.450740
 675.900000    0.450674
 676.000000    0.450608
 676.100000    0.450619
 676.200000    0.450631
 676.300000    0.450642
 676.400000    0.450654
 676.500000    0.450665
 676.600000    0.450582
 676.700000    0.450262
 676.800000    0.449943
 676.900000    0.448963
 677.000000    0.447983
 677.100000    0.447063
 677.200000    0.446143
 677.300000    0.445223
 677.400000    0.444304
 677.500000    0.443384
 677.600000    0.442558
 677.700000    0.441731
 677.800000    0.440904
 677.900000    0.440077
 678.000000    0.439249
 678.100000    0.438308
 678.200000    0.437368
 678.300000    0.436451
 678.400000    0.435534
 678.500000    0.434617
 678.600000    0.433701
 678.700000    0.432784
 678.800000    0.431868
 678.900000    0.430951
 679.000000    0.430035
 679.100000    0.429062
 679.200000    0.428089
 679.300000    0.427093
 679.400000    0.426097
 679.500000    0.425125
 679.600000    0.424154
 679.700000    0.423182
 679.800000    0.422212
 679.900000    0.421241
 680.000000    0.420271
 680.100000    0.419410
 680.200000    0.418550
 680.300000    0.417006
 680.400000    0.415462
 680.500000    0.413705
 680.600000    0.411862
 680.700000    0.409996
 680.800000    0.408129
 680.900000    0.406287
 681.000000    0.404446
 681.100000    0.402576
 681.200000    0.400707
 681.300000    0.398815
 681.400000    0.396924
 681.500000    0.395057
 681.600000    0.393191
 681.700000    0.391326
 681.800000    0.389461
 681.900000    0.387574
 682.000000    0.385687
 682.100000    0.383853
 682.200000    0.382019
 682.300000    0.380186
 682.400000    0.378353
 682.500000    0.376497
 682.600000    0.374721
 682.700000    0.372967
 682.800000    0.371213
 682.900000    0.369459
 683.000000    0.367705
 683.100000    0.365847
 683.200000    0.363989
 683.300000    0.362155
 683.400000    0.360322
 683.500000    0.358490
 683.600000    0.356658
 683.700000    0.354827
 683.800000    0.352997
 683.900000    0.351143
 684.000000    0.349290
 684.100000    0.347430
 684.200000    0.345571
 684.300000    0.343712
 684.400000    0.341853
 684.500000    0.339971
 684.600000    0.338089
 684.700000    0.336231
 684.800000    0.334373
 684.900000    0.332516
 685.000000    0.330658
 685.100000    0.328813
 685.200000    0.326967
 685.300000    0.325145
 685.400000    0.323322
 685.500000    0.321500
 685.600000    0.319342
 685.700000    0.317164
 685.800000    0.314990
 685.900000    0.312844
 686.000000    0.310701
 686.100000    0.305907
 686.200000    0.301148
 686.300000    0.296402
 686.400000    0.291691
 686.500000    0.287039
 686.600000    0.278119
 686.700000    0.269287
 686.800000    0.260541
 686.900000    0.251862
 687.000000    0.243270
 687.100000    0.238465
 687.200000    0.233700
 687.300000    0.228977
 687.400000    0.224295
 687.500000    0.219636
 687.600000    0.221916
 687.700000    0.224168
 687.800000    0.226372
 687.900000    0.228530
 688.000000    0.230641
 688.100000    0.232060
 688.200000    0.233439
 688.300000    0.234800
 688.400000    0.236122
 688.500000    0.237407
 688.600000    0.235033
 688.700000    0.232669
 688.800000    0.230317
 688.900000    0.227954
 689.000000    0.225602
 689.100000    0.224029
 689.200000    0.222455
 689.300000    0.220883
 689.400000    0.219311
 689.500000    0.217720
 689.600000    0.217116
 689.700000    0.216518
 689.800000    0.215907
 689.900000    0.215283
 690.000000    0.214645
 690.100000    0.213812
 690.200000    0.212967
 690.300000    0.212132
 690.400000    0.211286
 690.500000    0.210428
 690.600000    0.209656
 690.700000    0.208850
 690.800000    0.208031
 690.900000    0.207220
 691.000000    0.206396
 691.100000    0.205339
 691.200000    0.204273
 691.300000    0.203175
 691.400000    0.202068
 691.500000    0.200973
 691.600000    0.199823
 691.700000    0.198665
 691.800000    0.197498
 691.900000    0.196301
 692.000000    0.195094
 692.100000    0.193838
 692.200000    0.192574
 692.300000    0.191303
 692.400000    0.190024
 692.500000    0.188715
 692.600000    0.187316
 692.700000    0.185934
 692.800000    0.184546
 692.900000    0.183152
 693.000000    0.181752
 693.100000    0.180117
 693.200000    0.178480
 693.300000    0.176863
 693.400000    0.175245
 693.500000    0.173624
 693.600000    0.171891
 693.700000    0.170157
 693.800000    0.168424
 693.900000    0.166669
 694.000000    0.164913
 694.100000    0.163222
 694.200000    0.161531
 694.300000    0.159839
 694.400000    0.158146
 694.500000    0.156429
 694.600000    0.154811
 694.700000    0.153213
 694.800000    0.151611
 694.900000    0.150007
 695.000000    0.148399
 695.100000    0.146693
 695.200000    0.144986
 695.300000    0.143300
 695.400000    0.141613
 695.500000    0.139925
 695.600000    0.138176
 695.700000    0.136405
 695.800000    0.134634
 695.900000    0.132886
 696.000000    0.131139
 696.100000    0.129546
 696.200000    0.127950
 696.300000    0.126327
 696.400000    0.124699
 696.500000    0.123091
 696.600000    0.121504
 696.700000    0.119912
 696.800000    0.118316
 696.900000    0.116691
 697.000000    0.115062
 697.100000    0.113318
 697.200000    0.111574
 697.300000    0.109830
 697.400000    0.108084
 697.500000    0.106315
 697.600000    0.104502
 697.700000    0.102712
 697.800000    0.100924
 697.900000    0.099136
 698.000000    0.097349
 698.100000    0.095504
 698.200000    0.093660
 698.300000    0.091843
 698.400000    0.090027
 698.500000    0.088214
 698.600000    0.086366
 698.700000    0.084522
 698.800000    0.082682
 698.900000    0.080823
 699.000000    0.078967
 699.100000    0.077214
 699.200000    0.075462
 699.300000    0.073709
 699.400000    0.071957
 699.500000    0.070182
 699.600000    0.068437
 699.700000    0.066713
 699.800000    0.064988
 699.900000    0.063261
 700.000000    0.061534
 700.100000    0.059765
 700.200000    0.057996
 700.300000    0.056250
 700.400000    0.054503
 700.500000    0.052757
 700.600000    0.051010
 700.700000    0.049240
 700.800000    0.047469
 700.900000    0.045721
 701.000000    0.043973
 701.100000    0.043095
 701.200000    0.042216
 701.300000    0.041338
 701.400000    0.040460
 701.500000    0.039582
 701.600000    0.038712
 701.700000    0.037819
 701.800000    0.036925
 701.900000    0.036055
 702.000000    0.035184
 702.100000    0.034307
 702.200000    0.033430
 702.300000    0.032554
 702.400000    0.031677
 702.500000    0.030800
 702.600000    0.029936
 702.700000    0.029071
 702.800000    0.028206
 702.900000    0.027316
 703.000000    0.026426
 703.100000    0.025572
 703.200000    0.024717
 703.300000    0.023860
 703.400000    0.023001
 703.500000    0.022140
 703.600000    0.021260
 703.700000    0.020380
 703.800000    0.019500
 703.900000    0.018619
 704.000000    0.017739
 704.100000    0.016832
 704.200000    0.015926
 704.300000    0.015042
 704.400000    0.014159
 704.500000    0.013276
 704.600000    0.012393
 704.700000    0.011511
 704.800000    0.010628
 704.900000    0.009746
 705.000000    0.008863
 705.100000    0.007982
 705.200000    0.007101
 705.300000    0.006196
 705.400000    0.005292
 705.500000    0.004410
 705.600000    0.003529
 705.700000    0.002648
 705.800000    0.001766
 705.900000    0.000883
 706.000000    0.000000
 706.100000    0.000000
 706.200000    0.000000
 706.300000    0.000000
