# file: G_GAIA.Euclid.pb
# instrument: Euclid
# system: AB
# xtype: wavelength
# ytype: qe
# description: Full system QE
# comment: SPV2 values from SPV02 branch of the Euclid MDB
# comment: MDB file: EUC_MDB_MISSIONCONFIGURATION-SPV02_2018-06-16T140000.00Z_01.01.xml
# comment: MDB variable: ExternalData.GAIA.TotalSystemTransmissionExpressedAsQE
# url: http://euclid.esac.esa.int/epdb/db/SPV02/
# reference: Euclid Consortium Mission Performance Document, V 2.0
# xref: 642.0 nm
# filter: G_GAIA
# xunit: nm
 300.00    0.0000002492
 300.25    0.0000002450
 300.50    0.0000002409
 300.75    0.0000002367
 301.00    0.0000002326
 301.25    0.0000002278
 301.50    0.0000002231
 301.75    0.0000002183
 302.00    0.0000002136
 302.25    0.0000002082
 302.50    0.0000002029
 302.75    0.0000001975
 303.00    0.0000001922
 303.25    0.0000001866
 303.50    0.0000001811
 303.75    0.0000001756
 304.00    0.0000001701
 304.25    0.0000001642
 304.50    0.0000001584
 304.75    0.0000001525
 305.00    0.0000001467
 305.25    0.0000001406
 305.50    0.0000001346
 305.75    0.0000001285
 306.00    0.0000001225
 306.25    0.0000001171
 306.50    0.0000001117
 306.75    0.0000001064
 307.00    0.0000001010
 307.25    0.0000000961
 307.50    0.0000000911
 307.75    0.0000000862
 308.00    0.0000000813
 308.25    0.0000000770
 308.50    0.0000000727
 308.75    0.0000000684
 309.00    0.0000000641
 309.25    0.0000000610
 309.50    0.0000000579
 309.75    0.0000000548
 310.00    0.0000000516
 310.25    0.0000000493
 310.50    0.0000000469
 310.75    0.0000000445
 311.00    0.0000000422
 311.25    0.0000000405
 311.50    0.0000000388
 311.75    0.0000000370
 312.00    0.0000000353
 312.25    0.0000000340
 312.50    0.0000000326
 312.75    0.0000000313
 313.00    0.0000000299
 313.25    0.0000000288
 313.50    0.0000000276
 313.75    0.0000000265
 314.00    0.0000000253
 314.25    0.0000000244
 314.50    0.0000000235
 314.75    0.0000000226
 315.00    0.0000000217
 315.25    0.0000000207
 315.50    0.0000000198
 315.75    0.0000000189
 316.00    0.0000000180
 316.25    0.0000000175
 316.50    0.0000000170
 316.75    0.0000000164
 317.00    0.0000000159
 317.25    0.0000000159
 317.50    0.0000000160
 317.75    0.0000000160
 318.00    0.0000000160
 318.25    0.0000000163
 318.50    0.0000000166
 318.75    0.0000000169
 319.00    0.0000000172
 319.25    0.0000000194
 319.50    0.0000000216
 319.75    0.0000000238
 320.00    0.0000000261
 320.25    0.0000000430
 320.50    0.0000000599
 320.75    0.0000000769
 321.00    0.0000000938
 321.25    0.0000001843
 321.50    0.0000002748
 321.75    0.0000003652
 322.00    0.0000004557
 322.25    0.0000008993
 322.50    0.0000013428
 322.75    0.0000017864
 323.00    0.0000022300
 323.25    0.0000043880
 323.50    0.0000065459
 323.75    0.0000087039
 324.00    0.0000108619
 324.25    0.0000200867
 324.50    0.0000293115
 324.75    0.0000385363
 325.00    0.0000477612
 325.25    0.0000806290
 325.50    0.0001134968
 325.75    0.0001463646
 326.00    0.0001792324
 326.25    0.0002720020
 326.50    0.0003647716
 326.75    0.0004575412
 327.00    0.0005503108
 327.25    0.0007601224
 327.50    0.0009699340
 327.75    0.0011797456
 328.00    0.0013895571
 328.25    0.0017831005
 328.50    0.0021766439
 328.75    0.0025701873
 329.00    0.0029637307
 329.25    0.0035914286
 329.50    0.0042191265
 329.75    0.0048468244
 330.00    0.0054745223
 330.25    0.0063513249
 330.50    0.0072281276
 330.75    0.0081049302
 331.00    0.0089817328
 331.25    0.0100799913
 331.50    0.0111782497
 331.75    0.0122765082
 332.00    0.0133747666
 332.25    0.0146330349
 332.50    0.0158913032
 332.75    0.0171495716
 333.00    0.0184078399
 333.25    0.0197914370
 333.50    0.0211750341
 333.75    0.0225586312
 334.00    0.0239422284
 334.25    0.0253752696
 334.50    0.0268083107
 334.75    0.0282413519
 335.00    0.0296743931
 335.25    0.0310892771
 335.50    0.0325041612
 335.75    0.0339190453
 336.00    0.0353339293
 336.25    0.0367314954
 336.50    0.0381290614
 336.75    0.0395266274
 337.00    0.0409241935
 337.25    0.0422619394
 337.50    0.0435996853
 337.75    0.0449374312
 338.00    0.0462751771
 338.25    0.0475748131
 338.50    0.0488744492
 338.75    0.0501740853
 339.00    0.0514737213
 339.25    0.0527112583
 339.50    0.0539487952
 339.75    0.0551863322
 340.00    0.0564238691
 340.25    0.0576256341
 340.50    0.0588273992
 340.75    0.0600291642
 341.00    0.0612309292
 341.25    0.0623544255
 341.50    0.0634779218
 341.75    0.0646014180
 342.00    0.0657249143
 342.25    0.0667464817
 342.50    0.0677680491
 342.75    0.0687896166
 343.00    0.0698111840
 343.25    0.0707501351
 343.50    0.0716890861
 343.75    0.0726280372
 344.00    0.0735669882
 344.25    0.0744373209
 344.50    0.0753076535
 344.75    0.0761779862
 345.00    0.0770483188
 345.25    0.0777958945
 345.50    0.0785434702
 345.75    0.0792910459
 346.00    0.0800386215
 346.25    0.0807012048
 346.50    0.0813637880
 346.75    0.0820263712
 347.00    0.0826889544
 347.25    0.0832618651
 347.50    0.0838347758
 347.75    0.0844076865
 348.00    0.0849805972
 348.25    0.0854731001
 348.50    0.0859656031
 348.75    0.0864581060
 349.00    0.0869506089
 349.25    0.0873735765
 349.50    0.0877965440
 349.75    0.0882195116
 350.00    0.0886424791
 350.25    0.0889881800
 350.50    0.0893338809
 350.75    0.0896795818
 351.00    0.0900252827
 351.25    0.0902899762
 351.50    0.0905546698
 351.75    0.0908193634
 352.00    0.0910840569
 352.25    0.0912839534
 352.50    0.0914838499
 352.75    0.0916837464
 353.00    0.0918836428
 353.25    0.0920651481
 353.50    0.0922466533
 353.75    0.0924281585
 354.00    0.0926096637
 354.25    0.0927199934
 354.50    0.0928303231
 354.75    0.0929406529
 355.00    0.0930509826
 355.25    0.0931149818
 355.50    0.0931789810
 355.75    0.0932429802
 356.00    0.0933069794
 356.25    0.0933088882
 356.50    0.0933107970
 356.75    0.0933127058
 357.00    0.0933146145
 357.25    0.0933194001
 357.50    0.0933241857
 357.75    0.0933289713
 358.00    0.0933337569
 358.25    0.0932716380
 358.50    0.0932095191
 358.75    0.0931474001
 359.00    0.0930852812
 359.25    0.0930156894
 359.50    0.0929460975
 359.75    0.0928765057
 360.00    0.0928069139
 360.25    0.0927449499
 360.50    0.0926829859
 360.75    0.0926210219
 361.00    0.0925590579
 361.25    0.0924487770
 361.50    0.0923384961
 361.75    0.0922282152
 362.00    0.0921179344
 362.25    0.0920711752
 362.50    0.0920244161
 362.75    0.0919776570
 363.00    0.0919308978
 363.25    0.0918640293
 363.50    0.0917971608
 363.75    0.0917302922
 364.00    0.0916634237
 364.25    0.0916482627
 364.50    0.0916331017
 364.75    0.0916179407
 365.00    0.0916027797
 365.25    0.0916235054
 365.50    0.0916442310
 365.75    0.0916649566
 366.00    0.0916856822
 366.25    0.0917280427
 366.50    0.0917704032
 366.75    0.0918127637
 367.00    0.0918551243
 367.25    0.0919873620
 367.50    0.0921195998
 367.75    0.0922518375
 368.00    0.0923840753
 368.25    0.0925773598
 368.50    0.0927706443
 368.75    0.0929639288
 369.00    0.0931572133
 369.25    0.0933674219
 369.50    0.0935776306
 369.75    0.0937878393
 370.00    0.0939980480
 370.25    0.0943135053
 370.50    0.0946289626
 370.75    0.0949444199
 371.00    0.0952598771
 371.25    0.0955820125
 371.50    0.0959041478
 371.75    0.0962262831
 372.00    0.0965484184
 372.25    0.0969230386
 372.50    0.0972976587
 372.75    0.0976722789
 373.00    0.0980468990
 373.25    0.0984856757
 373.50    0.0989244524
 373.75    0.0993632290
 374.00    0.0998020057
 374.25    0.1003193420
 374.50    0.1008366790
 374.75    0.1013540160
 375.00    0.1018713530
 375.25    0.1024801500
 375.50    0.1030889470
 375.75    0.1036977450
 376.00    0.1043065420
 376.25    0.1049721560
 376.50    0.1056377710
 376.75    0.1063033850
 377.00    0.1069689990
 377.25    0.1077193400
 377.50    0.1084696800
 377.75    0.1092200210
 378.00    0.1099703610
 378.25    0.1109031820
 378.50    0.1118360030
 378.75    0.1127688230
 379.00    0.1137016440
 379.25    0.1147918140
 379.50    0.1158819840
 379.75    0.1169721540
 380.00    0.1180623240
 380.25    0.1193356950
 380.50    0.1206090670
 380.75    0.1218824380
 381.00    0.1231558090
 381.25    0.1246693100
 381.50    0.1261828110
 381.75    0.1276963110
 382.00    0.1292098120
 382.25    0.1309197340
 382.50    0.1326296550
 382.75    0.1343395760
 383.00    0.1360494970
 383.25    0.1380142760
 383.50    0.1399790550
 383.75    0.1419438340
 384.00    0.1439086130
 384.25    0.1461146080
 384.50    0.1483206030
 384.75    0.1505265970
 385.00    0.1527325920
 385.25    0.1552343250
 385.50    0.1577360580
 385.75    0.1602377910
 386.00    0.1627395240
 386.25    0.1654629680
 386.50    0.1681864120
 386.75    0.1709098560
 387.00    0.1736333000
 387.25    0.1765882990
 387.50    0.1795432990
 387.75    0.1824982990
 388.00    0.1854532980
 388.25    0.1886231730
 388.50    0.1917930480
 388.75    0.1949629230
 389.00    0.1981327970
 389.25    0.2014240130
 389.50    0.2047152290
 389.75    0.2080064450
 390.00    0.2112976610
 390.25    0.2146832370
 390.50    0.2180688120
 390.75    0.2214543870
 391.00    0.2248399620
 391.25    0.2283180330
 391.50    0.2317961030
 391.75    0.2352741740
 392.00    0.2387522450
 392.25    0.2421808150
 392.50    0.2456093860
 392.75    0.2490379560
 393.00    0.2524665270
 393.25    0.2559057680
 393.50    0.2593450100
 393.75    0.2627842510
 394.00    0.2662234920
 394.25    0.2695083550
 394.50    0.2727932170
 394.75    0.2760780800
 395.00    0.2793629430
 395.25    0.2825727180
 395.50    0.2857824930
 395.75    0.2889922680
 396.00    0.2922020430
 396.25    0.2952427510
 396.50    0.2982834590
 396.75    0.3013241670
 397.00    0.3043648750
 397.25    0.3072460020
 397.50    0.3101271300
 397.75    0.3130082570
 398.00    0.3158893850
 398.25    0.3187349670
 398.50    0.3215805490
 398.75    0.3244261310
 399.00    0.3272717130
 399.25    0.3299224870
 399.50    0.3325732600
 399.75    0.3352240340
 400.00    0.3378748070
 400.25    0.3403037130
 400.50    0.3427326190
 400.75    0.3451615240
 401.00    0.3475904300
 401.25    0.3499929280
 401.50    0.3523954270
 401.75    0.3547979250
 402.00    0.3572004240
 402.25    0.3596073270
 402.50    0.3620142300
 402.75    0.3644211320
 403.00    0.3668280350
 403.25    0.3689862560
 403.50    0.3711444770
 403.75    0.3733026980
 404.00    0.3754609180
 404.25    0.3775139730
 404.50    0.3795670270
 404.75    0.3816200820
 405.00    0.3836731360
 405.25    0.3857069970
 405.50    0.3877408590
 405.75    0.3897747200
 406.00    0.3918085810
 406.25    0.3936540920
 406.50    0.3954996040
 406.75    0.3973451150
 407.00    0.3991906270
 407.25    0.4009719580
 407.50    0.4027532900
 407.75    0.4045346210
 408.00    0.4063159520
 408.25    0.4080516010
 408.50    0.4097872490
 408.75    0.4115228970
 409.00    0.4132585460
 409.25    0.4149088360
 409.50    0.4165591270
 409.75    0.4182094170
 410.00    0.4198597080
 410.25    0.4215570610
 410.50    0.4232544140
 410.75    0.4249517660
 411.00    0.4266491190
 411.25    0.4282783560
 411.50    0.4299075930
 411.75    0.4315368300
 412.00    0.4331660670
 412.25    0.4346242820
 412.50    0.4360824970
 412.75    0.4375407120
 413.00    0.4389989270
 413.25    0.4403620700
 413.50    0.4417252130
 413.75    0.4430883560
 414.00    0.4444514990
 414.25    0.4458474210
 414.50    0.4472433430
 414.75    0.4486392660
 415.00    0.4500351880
 415.25    0.4513738240
 415.50    0.4527124600
 415.75    0.4540510960
 416.00    0.4553897320
 416.25    0.4566723560
 416.50    0.4579549810
 416.75    0.4592376050
 417.00    0.4605202290
 417.25    0.4617887710
 417.50    0.4630573130
 417.75    0.4643258550
 418.00    0.4655943970
 418.25    0.4667609420
 418.50    0.4679274880
 418.75    0.4690940340
 419.00    0.4702605790
 419.25    0.4713976710
 419.50    0.4725347630
 419.75    0.4736718550
 420.00    0.4748089470
 420.25    0.4759401450
 420.50    0.4770713430
 420.75    0.4782025420
 421.00    0.4793337400
 421.25    0.4803824650
 421.50    0.4814311910
 421.75    0.4824799160
 422.00    0.4835286420
 422.25    0.4846630310
 422.50    0.4857974210
 422.75    0.4869318100
 423.00    0.4880661990
 423.25    0.4890556180
 423.50    0.4900450380
 423.75    0.4910344570
 424.00    0.4920238760
 424.25    0.4929037220
 424.50    0.4937835680
 424.75    0.4946634130
 425.00    0.4955432590
 425.25    0.4965175630
 425.50    0.4974918680
 425.75    0.4984661720
 426.00    0.4994404760
 426.25    0.5004557370
 426.50    0.5014709970
 426.75    0.5024862580
 427.00    0.5035015190
 427.25    0.5044219250
 427.50    0.5053423300
 427.75    0.5062627360
 428.00    0.5071831420
 428.25    0.5080236610
 428.50    0.5088641790
 428.75    0.5097046980
 429.00    0.5105452160
 429.25    0.5114069830
 429.50    0.5122687500
 429.75    0.5131305160
 430.00    0.5139922830
 430.25    0.5147900620
 430.50    0.5155878410
 430.75    0.5163856200
 431.00    0.5171833990
 431.25    0.5179614270
 431.50    0.5187394550
 431.75    0.5195174830
 432.00    0.5202955100
 432.25    0.5211365980
 432.50    0.5219776860
 432.75    0.5228187740
 433.00    0.5236598620
 433.25    0.5244836240
 433.50    0.5253073870
 433.75    0.5261311490
 434.00    0.5269549110
 434.25    0.5277860830
 434.50    0.5286172550
 434.75    0.5294484280
 435.00    0.5302796000
 435.25    0.5310456470
 435.50    0.5318116950
 435.75    0.5325777430
 436.00    0.5333437900
 436.25    0.5339365580
 436.50    0.5345293260
 436.75    0.5351220930
 437.00    0.5357148610
 437.25    0.5363825040
 437.50    0.5370501470
 437.75    0.5377177900
 438.00    0.5383854330
 438.25    0.5390603990
 438.50    0.5397353660
 438.75    0.5404103320
 439.00    0.5410852990
 439.25    0.5417941910
 439.50    0.5425030840
 439.75    0.5432119760
 440.00    0.5439208690
 440.25    0.5446109530
 440.50    0.5453010370
 440.75    0.5459911210
 441.00    0.5466812040
 441.25    0.5473880190
 441.50    0.5480948340
 441.75    0.5488016490
 442.00    0.5495084640
 442.25    0.5502352400
 442.50    0.5509620170
 442.75    0.5516887940
 443.00    0.5524155700
 443.25    0.5530781540
 443.50    0.5537407380
 443.75    0.5544033210
 444.00    0.5550659050
 444.25    0.5557604770
 444.50    0.5564550490
 444.75    0.5571496220
 445.00    0.5578441940
 445.25    0.5584522240
 445.50    0.5590602550
 445.75    0.5596682850
 446.00    0.5602763160
 446.25    0.5608194630
 446.50    0.5613626110
 446.75    0.5619057580
 447.00    0.5624489060
 447.25    0.5631287720
 447.50    0.5638086390
 447.75    0.5644885060
 448.00    0.5651683730
 448.25    0.5658794650
 448.50    0.5665905570
 448.75    0.5673016490
 449.00    0.5680127400
 449.25    0.5685523220
 449.50    0.5690919040
 449.75    0.5696314860
 450.00    0.5701710680
 450.25    0.5706877420
 450.50    0.5712044160
 450.75    0.5717210910
 451.00    0.5722377650
 451.25    0.5729468550
 451.50    0.5736559460
 451.75    0.5743650360
 452.00    0.5750741260
 452.25    0.5756886690
 452.50    0.5763032130
 452.75    0.5769177560
 453.00    0.5775322990
 453.25    0.5780653650
 453.50    0.5785984300
 453.75    0.5791314950
 454.00    0.5796645610
 454.25    0.5802779860
 454.50    0.5808914120
 454.75    0.5815048380
 455.00    0.5821182630
 455.25    0.5827259280
 455.50    0.5833335930
 455.75    0.5839412580
 456.00    0.5845489230
 456.25    0.5850510360
 456.50    0.5855531490
 456.75    0.5860552610
 457.00    0.5865573740
 457.25    0.5871105450
 457.50    0.5876637160
 457.75    0.5882168870
 458.00    0.5887700570
 458.25    0.5893968960
 458.50    0.5900237350
 458.75    0.5906505740
 459.00    0.5912774130
 459.25    0.5918290290
 459.50    0.5923806450
 459.75    0.5929322610
 460.00    0.5934838780
 460.25    0.5940420640
 460.50    0.5946002510
 460.75    0.5951584380
 461.00    0.5957166250
 461.25    0.5962436730
 461.50    0.5967707210
 461.75    0.5972977690
 462.00    0.5978248180
 462.25    0.5982963570
 462.50    0.5987678960
 462.75    0.5992394350
 463.00    0.5997109740
 463.25    0.6002478740
 463.50    0.6007847750
 463.75    0.6013216760
 464.00    0.6018585770
 464.25    0.6024968990
 464.50    0.6031352210
 464.75    0.6037735440
 465.00    0.6044118660
 465.25    0.6049892530
 465.50    0.6055666410
 465.75    0.6061440280
 466.00    0.6067214150
 466.25    0.6071486230
 466.50    0.6075758310
 466.75    0.6080030380
 467.00    0.6084302460
 467.25    0.6088696020
 467.50    0.6093089590
 467.75    0.6097483150
 468.00    0.6101876710
 468.25    0.6108011070
 468.50    0.6114145420
 468.75    0.6120279780
 469.00    0.6126414140
 469.25    0.6131288950
 469.50    0.6136163760
 469.75    0.6141038580
 470.00    0.6145913390
 470.25    0.6150154580
 470.50    0.6154395770
 470.75    0.6158636960
 471.00    0.6162878150
 471.25    0.6169080730
 471.50    0.6175283310
 471.75    0.6181485880
 472.00    0.6187688460
 472.25    0.6193055640
 472.50    0.6198422810
 472.75    0.6203789990
 473.00    0.6209157170
 473.25    0.6213373050
 473.50    0.6217588930
 473.75    0.6221804810
 474.00    0.6226020690
 474.25    0.6230644950
 474.50    0.6235269210
 474.75    0.6239893460
 475.00    0.6244517720
 475.25    0.6249973180
 475.50    0.6255428640
 475.75    0.6260884100
 476.00    0.6266339570
 476.25    0.6272137580
 476.50    0.6277935600
 476.75    0.6283733620
 477.00    0.6289531640
 477.25    0.6294348690
 477.50    0.6299165750
 477.75    0.6303982800
 478.00    0.6308799860
 478.25    0.6312551800
 478.50    0.6316303740
 478.75    0.6320055680
 479.00    0.6323807630
 479.25    0.6327562820
 479.50    0.6331318010
 479.75    0.6335073210
 480.00    0.6338828400
 480.25    0.6345034270
 480.50    0.6351240140
 480.75    0.6357446000
 481.00    0.6363651870
 481.25    0.6367274790
 481.50    0.6370897710
 481.75    0.6374520630
 482.00    0.6378143550
 482.25    0.6380823480
 482.50    0.6383503410
 482.75    0.6386183340
 483.00    0.6388863280
 483.25    0.6392730220
 483.50    0.6396597170
 483.75    0.6400464120
 484.00    0.6404331070
 484.25    0.6409144900
 484.50    0.6413958730
 484.75    0.6418772560
 485.00    0.6423586390
 485.25    0.6428341720
 485.50    0.6433097040
 485.75    0.6437852370
 486.00    0.6442607700
 486.25    0.6447290230
 486.50    0.6451972760
 486.75    0.6456655290
 487.00    0.6461337830
 487.25    0.6465151910
 487.50    0.6468966000
 487.75    0.6472780090
 488.00    0.6476594180
 488.25    0.6480353030
 488.50    0.6484111890
 488.75    0.6487870740
 489.00    0.6491629600
 489.25    0.6495589110
 489.50    0.6499548620
 489.75    0.6503508130
 490.00    0.6507467640
 490.25    0.6511020450
 490.50    0.6514573250
 490.75    0.6518126060
 491.00    0.6521678860
 491.25    0.6524427320
 491.50    0.6527175790
 491.75    0.6529924250
 492.00    0.6532672720
 492.25    0.6536329570
 492.50    0.6539986420
 492.75    0.6543643280
 493.00    0.6547300130
 493.25    0.6551918050
 493.50    0.6556535960
 493.75    0.6561153880
 494.00    0.6565771800
 494.25    0.6571191750
 494.50    0.6576611700
 494.75    0.6582031650
 495.00    0.6587451600
 495.25    0.6591235540
 495.50    0.6595019480
 495.75    0.6598803420
 496.00    0.6602587360
 496.25    0.6605980960
 496.50    0.6609374550
 496.75    0.6612768150
 497.00    0.6616161740
 497.25    0.6619419090
 497.50    0.6622676440
 497.75    0.6625933790
 498.00    0.6629191130
 498.25    0.6631009530
 498.50    0.6632827920
 498.75    0.6634646320
 499.00    0.6636464710
 499.25    0.6639048890
 499.50    0.6641633070
 499.75    0.6644217250
 500.00    0.6646801430
 500.25    0.6650480410
 500.50    0.6654159390
 500.75    0.6657838360
 501.00    0.6661517340
 501.25    0.6666773130
 501.50    0.6672028910
 501.75    0.6677284690
 502.00    0.6682540480
 502.25    0.6685081530
 502.50    0.6687622590
 502.75    0.6690163640
 503.00    0.6692704700
 503.25    0.6695130300
 503.50    0.6697555910
 503.75    0.6699981520
 504.00    0.6702407130
 504.25    0.6705876640
 504.50    0.6709346150
 504.75    0.6712815660
 505.00    0.6716285170
 505.25    0.6719270780
 505.50    0.6722256380
 505.75    0.6725241980
 506.00    0.6728227590
 506.25    0.6732227140
 506.50    0.6736226690
 506.75    0.6740226250
 507.00    0.6744225800
 507.25    0.6746414770
 507.50    0.6748603740
 507.75    0.6750792710
 508.00    0.6752981680
 508.25    0.6754074880
 508.50    0.6755168080
 508.75    0.6756261280
 509.00    0.6757354480
 509.25    0.6760980880
 509.50    0.6764607270
 509.75    0.6768233660
 510.00    0.6771860060
 510.25    0.6775533250
 510.50    0.6779206440
 510.75    0.6782879640
 511.00    0.6786552830
 511.25    0.6788433260
 511.50    0.6790313690
 511.75    0.6792194120
 512.00    0.6794074550
 512.25    0.6794590060
 512.50    0.6795105570
 512.75    0.6795621080
 513.00    0.6796136590
 513.25    0.6800322160
 513.50    0.6804507730
 513.75    0.6808693300
 514.00    0.6812878880
 514.25    0.6815302940
 514.50    0.6817727000
 514.75    0.6820151060
 515.00    0.6822575120
 515.25    0.6823886860
 515.50    0.6825198590
 515.75    0.6826510320
 516.00    0.6827822060
 516.25    0.6829768360
 516.50    0.6831714660
 516.75    0.6833660960
 517.00    0.6835607260
 517.25    0.6837169690
 517.50    0.6838732110
 517.75    0.6840294540
 518.00    0.6841856960
 518.25    0.6844790440
 518.50    0.6847723920
 518.75    0.6850657400
 519.00    0.6853590880
 519.25    0.6857609200
 519.50    0.6861627520
 519.75    0.6865645840
 520.00    0.6869664160
 520.25    0.6872315990
 520.50    0.6874967820
 520.75    0.6877619650
 521.00    0.6880271470
 521.25    0.6881663310
 521.50    0.6883055150
 521.75    0.6884446990
 522.00    0.6885838830
 522.25    0.6886799260
 522.50    0.6887759690
 522.75    0.6888720110
 523.00    0.6889680540
 523.25    0.6891576660
 523.50    0.6893472770
 523.75    0.6895368890
 524.00    0.6897265000
 524.25    0.6899825960
 524.50    0.6902386920
 524.75    0.6904947880
 525.00    0.6907508840
 525.25    0.6909210750
 525.50    0.6910912670
 525.75    0.6912614580
 526.00    0.6914316490
 526.25    0.6916032250
 526.50    0.6917748020
 526.75    0.6919463780
 527.00    0.6921179540
 527.25    0.6922595580
 527.50    0.6924011610
 527.75    0.6925427650
 528.00    0.6926843680
 528.25    0.6927854180
 528.50    0.6928864680
 528.75    0.6929875170
 529.00    0.6930885670
 529.25    0.6932001580
 529.50    0.6933117490
 529.75    0.6934233400
 530.00    0.6935349310
 530.25    0.6938247430
 530.50    0.6941145550
 530.75    0.6944043680
 531.00    0.6946941800
 531.25    0.6949400680
 531.50    0.6951859560
 531.75    0.6954318450
 532.00    0.6956777330
 532.25    0.6959210840
 532.50    0.6961644340
 532.75    0.6964077850
 533.00    0.6966511360
 533.25    0.6969074330
 533.50    0.6971637290
 533.75    0.6974200260
 534.00    0.6976763230
 534.25    0.6977102980
 534.50    0.6977442730
 534.75    0.6977782480
 535.00    0.6978122230
 535.25    0.6979289270
 535.50    0.6980456300
 535.75    0.6981623340
 536.00    0.6982790370
 536.25    0.6983711710
 536.50    0.6984633050
 536.75    0.6985554400
 537.00    0.6986475740
 537.25    0.6987637590
 537.50    0.6988799430
 537.75    0.6989961280
 538.00    0.6991123130
 538.25    0.6993223050
 538.50    0.6995322980
 538.75    0.6997422900
 539.00    0.6999522820
 539.25    0.7001549320
 539.50    0.7003575820
 539.75    0.7005602320
 540.00    0.7007628820
 540.25    0.7008914810
 540.50    0.7010200800
 540.75    0.7011486800
 541.00    0.7012772790
 541.25    0.7013643470
 541.50    0.7014514140
 541.75    0.7015384810
 542.00    0.7016255480
 542.25    0.7015940150
 542.50    0.7015624820
 542.75    0.7015309480
 543.00    0.7014994150
 543.25    0.7015023200
 543.50    0.7015052240
 543.75    0.7015081290
 544.00    0.7015110340
 544.25    0.7016442180
 544.50    0.7017774010
 544.75    0.7019105850
 545.00    0.7020437680
 545.25    0.7023037350
 545.50    0.7025637030
 545.75    0.7028236700
 546.00    0.7030836370
 546.25    0.7033326430
 546.50    0.7035816500
 546.75    0.7038306570
 547.00    0.7040796630
 547.25    0.7040878810
 547.50    0.7040960980
 547.75    0.7041043150
 548.00    0.7041125330
 548.25    0.7041645240
 548.50    0.7042165150
 548.75    0.7042685060
 549.00    0.7043204970
 549.25    0.7044091800
 549.50    0.7044978640
 549.75    0.7045865470
 550.00    0.7046752310
 550.25    0.7046785150
 550.50    0.7046818000
 550.75    0.7046850850
 551.00    0.7046883700
 551.25    0.7046824420
 551.50    0.7046765150
 551.75    0.7046705870
 552.00    0.7046646600
 552.25    0.7050268560
 552.50    0.7053890520
 552.75    0.7057512480
 553.00    0.7061134440
 553.25    0.7062745760
 553.50    0.7064357070
 553.75    0.7065968390
 554.00    0.7067579700
 554.25    0.7067858930
 554.50    0.7068138160
 554.75    0.7068417390
 555.00    0.7068696620
 555.25    0.7069557820
 555.50    0.7070419020
 555.75    0.7071280220
 556.00    0.7072141420
 556.25    0.7072886160
 556.50    0.7073630910
 556.75    0.7074375650
 557.00    0.7075120390
 557.25    0.7075259530
 557.50    0.7075398670
 557.75    0.7075537810
 558.00    0.7075676950
 558.25    0.7075718310
 558.50    0.7075759670
 558.75    0.7075801040
 559.00    0.7075842400
 559.25    0.7077652450
 559.50    0.7079462500
 559.75    0.7081272550
 560.00    0.7083082600
 560.25    0.7082934610
 560.50    0.7082786620
 560.75    0.7082638630
 561.00    0.7082490640
 561.25    0.7084358480
 561.50    0.7086226330
 561.75    0.7088094180
 562.00    0.7089962020
 562.25    0.7090181340
 562.50    0.7090400660
 562.75    0.7090619980
 563.00    0.7090839300
 563.25    0.7092007920
 563.50    0.7093176540
 563.75    0.7094345150
 564.00    0.7095513770
 564.25    0.7096044140
 564.50    0.7096574510
 564.75    0.7097104880
 565.00    0.7097635250
 565.25    0.7097726790
 565.50    0.7097818330
 565.75    0.7097909880
 566.00    0.7098001420
 566.25    0.7099738120
 566.50    0.7101474810
 566.75    0.7103211510
 567.00    0.7104948200
 567.25    0.7105458480
 567.50    0.7105968760
 567.75    0.7106479040
 568.00    0.7106989320
 568.25    0.7105456540
 568.50    0.7103923770
 568.75    0.7102391000
 569.00    0.7100858230
 569.25    0.7102380930
 569.50    0.7103903630
 569.75    0.7105426340
 570.00    0.7106949040
 570.25    0.7106248710
 570.50    0.7105548370
 570.75    0.7104848040
 571.00    0.7104147710
 571.25    0.7104337610
 571.50    0.7104527510
 571.75    0.7104717410
 572.00    0.7104907310
 572.25    0.7105202390
 572.50    0.7105497480
 572.75    0.7105792570
 573.00    0.7106087660
 573.25    0.7107533930
 573.50    0.7108980210
 573.75    0.7110426480
 574.00    0.7111872750
 574.25    0.7111357580
 574.50    0.7110842410
 574.75    0.7110327230
 575.00    0.7109812060
 575.25    0.7109999720
 575.50    0.7110187380
 575.75    0.7110375040
 576.00    0.7110562700
 576.25    0.7111045770
 576.50    0.7111528830
 576.75    0.7112011900
 577.00    0.7112494970
 577.25    0.7114517480
 577.50    0.7116540000
 577.75    0.7118562520
 578.00    0.7120585030
 578.25    0.7120006030
 578.50    0.7119427020
 578.75    0.7118848020
 579.00    0.7118269010
 579.25    0.7118547980
 579.50    0.7118826950
 579.75    0.7119105920
 580.00    0.7119384890
 580.25    0.7120728570
 580.50    0.7122072250
 580.75    0.7123415940
 581.00    0.7124759620
 581.25    0.7123741000
 581.50    0.7122722390
 581.75    0.7121703770
 582.00    0.7120685160
 582.25    0.7122213920
 582.50    0.7123742680
 582.75    0.7125271430
 583.00    0.7126800190
 583.25    0.7126111210
 583.50    0.7125422230
 583.75    0.7124733250
 584.00    0.7124044270
 584.25    0.7123190410
 584.50    0.7122336550
 584.75    0.7121482690
 585.00    0.7120628840
 585.25    0.7119144940
 585.50    0.7117661050
 585.75    0.7116177160
 586.00    0.7114693260
 586.25    0.7117270130
 586.50    0.7119847000
 586.75    0.7122423860
 587.00    0.7125000730
 587.25    0.7125475100
 587.50    0.7125949460
 587.75    0.7126423830
 588.00    0.7126898200
 588.25    0.7128440910
 588.50    0.7129983620
 588.75    0.7131526340
 589.00    0.7133069050
 589.25    0.7133949800
 589.50    0.7134830560
 589.75    0.7135711310
 590.00    0.7136592060
 590.25    0.7134829700
 590.50    0.7133067330
 590.75    0.7131304970
 591.00    0.7129542610
 591.25    0.7126881460
 591.50    0.7124220320
 591.75    0.7121559170
 592.00    0.7118898020
 592.25    0.7120947190
 592.50    0.7122996360
 592.75    0.7125045530
 593.00    0.7127094700
 593.25    0.7127195480
 593.50    0.7127296270
 593.75    0.7127397060
 594.00    0.7127497840
 594.25    0.7127741780
 594.50    0.7127985710
 594.75    0.7128229650
 595.00    0.7128473580
 595.25    0.7130749190
 595.50    0.7133024790
 595.75    0.7135300400
 596.00    0.7137576000
 596.25    0.7135060350
 596.50    0.7132544700
 596.75    0.7130029040
 597.00    0.7127513390
 597.25    0.7127147580
 597.50    0.7126781770
 597.75    0.7126415960
 598.00    0.7126050150
 598.25    0.7124547850
 598.50    0.7123045550
 598.75    0.7121543250
 599.00    0.7120040950
 599.25    0.7119980920
 599.50    0.7119920880
 599.75    0.7119860840
 600.00    0.7119800800
 600.25    0.7123048420
 600.50    0.7126296040
 600.75    0.7129543660
 601.00    0.7132791280
 601.25    0.7130166220
 601.50    0.7127541150
 601.75    0.7124916080
 602.00    0.7122291020
 602.25    0.7121779600
 602.50    0.7121268190
 602.75    0.7120756770
 603.00    0.7120245360
 603.25    0.7121043820
 603.50    0.7121842270
 603.75    0.7122640730
 604.00    0.7123439190
 604.25    0.7121676940
 604.50    0.7119914680
 604.75    0.7118152430
 605.00    0.7116390180
 605.25    0.7116243400
 605.50    0.7116096620
 605.75    0.7115949840
 606.00    0.7115803060
 606.25    0.7114506640
 606.50    0.7113210220
 606.75    0.7111913800
 607.00    0.7110617370
 607.25    0.7111420790
 607.50    0.7112224200
 607.75    0.7113027620
 608.00    0.7113831040
 608.25    0.7114130590
 608.50    0.7114430150
 608.75    0.7114729710
 609.00    0.7115029270
 609.25    0.7114210090
 609.50    0.7113390920
 609.75    0.7112571750
 610.00    0.7111752580
 610.25    0.7112792010
 610.50    0.7113831450
 610.75    0.7114870880
 611.00    0.7115910310
 611.25    0.7113959410
 611.50    0.7112008510
 611.75    0.7110057610
 612.00    0.7108106720
 612.25    0.7108255760
 612.50    0.7108404800
 612.75    0.7108553840
 613.00    0.7108702880
 613.25    0.7108142970
 613.50    0.7107583060
 613.75    0.7107023150
 614.00    0.7106463250
 614.25    0.7106714480
 614.50    0.7106965710
 614.75    0.7107216940
 615.00    0.7107468180
 615.25    0.7107056040
 615.50    0.7106643900
 615.75    0.7106231750
 616.00    0.7105819610
 616.25    0.7104503740
 616.50    0.7103187870
 616.75    0.7101872000
 617.00    0.7100556130
 617.25    0.7097829400
 617.50    0.7095102680
 617.75    0.7092375950
 618.00    0.7089649220
 618.25    0.7089923770
 618.50    0.7090198320
 618.75    0.7090472880
 619.00    0.7090747430
 619.25    0.7091017910
 619.50    0.7091288380
 619.75    0.7091558860
 620.00    0.7091829340
 620.25    0.7091144890
 620.50    0.7090460450
 620.75    0.7089776000
 621.00    0.7089091560
 621.25    0.7090198150
 621.50    0.7091304740
 621.75    0.7092411320
 622.00    0.7093517910
 622.25    0.7090726130
 622.50    0.7087934350
 622.75    0.7085142570
 623.00    0.7082350790
 623.25    0.7079315350
 623.50    0.7076279900
 623.75    0.7073244460
 624.00    0.7070209010
 624.25    0.7069821120
 624.50    0.7069433240
 624.75    0.7069045350
 625.00    0.7068657460
 625.25    0.7067913480
 625.50    0.7067169490
 625.75    0.7066425510
 626.00    0.7065681520
 626.25    0.7065710760
 626.50    0.7065739990
 626.75    0.7065769220
 627.00    0.7065798450
 627.25    0.7064464290
 627.50    0.7063130140
 627.75    0.7061795980
 628.00    0.7060461820
 628.25    0.7060191200
 628.50    0.7059920590
 628.75    0.7059649970
 629.00    0.7059379350
 629.25    0.7057486650
 629.50    0.7055593960
 629.75    0.7053701260
 630.00    0.7051808560
 630.25    0.7051733290
 630.50    0.7051658020
 630.75    0.7051582750
 631.00    0.7051507480
 631.25    0.7052379940
 631.50    0.7053252390
 631.75    0.7054124850
 632.00    0.7054997310
 632.25    0.7053190300
 632.50    0.7051383300
 632.75    0.7049576290
 633.00    0.7047769290
 633.25    0.7046613080
 633.50    0.7045456880
 633.75    0.7044300680
 634.00    0.7043144470
 634.25    0.7041072920
 634.50    0.7039001360
 634.75    0.7036929800
 635.00    0.7034858250
 635.25    0.7035352810
 635.50    0.7035847370
 635.75    0.7036341930
 636.00    0.7036836490
 636.25    0.7035716550
 636.50    0.7034596610
 636.75    0.7033476670
 637.00    0.7032356730
 637.25    0.7032593790
 637.50    0.7032830840
 637.75    0.7033067900
 638.00    0.7033304950
 638.25    0.7030434160
 638.50    0.7027563380
 638.75    0.7024692590
 639.00    0.7021821810
 639.25    0.7020109250
 639.50    0.7018396690
 639.75    0.7016684130
 640.00    0.7014971570
 640.25    0.7013653710
 640.50    0.7012335860
 640.75    0.7011018000
 641.00    0.7009700140
 641.25    0.7009801700
 641.50    0.7009903250
 641.75    0.7010004800
 642.00    0.7010106350
 642.25    0.7009487290
 642.50    0.7008868230
 642.75    0.7008249170
 643.00    0.7007630110
 643.25    0.7005958650
 643.50    0.7004287200
 643.75    0.7002615750
 644.00    0.7000944290
 644.25    0.6998443160
 644.50    0.6995942030
 644.75    0.6993440900
 645.00    0.6990939770
 645.25    0.6989850790
 645.50    0.6988761810
 645.75    0.6987672830
 646.00    0.6986583850
 646.25    0.6987879090
 646.50    0.6989174330
 646.75    0.6990469570
 647.00    0.6991764810
 647.25    0.6990005630
 647.50    0.6988246450
 647.75    0.6986487270
 648.00    0.6984728080
 648.25    0.6981737140
 648.50    0.6978746200
 648.75    0.6975755250
 649.00    0.6972764310
 649.25    0.6972581450
 649.50    0.6972398590
 649.75    0.6972215730
 650.00    0.6972032870
 650.25    0.6971255130
 650.50    0.6970477400
 650.75    0.6969699660
 651.00    0.6968921920
 651.25    0.6967601160
 651.50    0.6966280400
 651.75    0.6964959640
 652.00    0.6963638880
 652.25    0.6962758650
 652.50    0.6961878420
 652.75    0.6960998200
 653.00    0.6960117970
 653.25    0.6958321630
 653.50    0.6956525280
 653.75    0.6954728930
 654.00    0.6952932590
 654.25    0.6950559680
 654.50    0.6948186770
 654.75    0.6945813870
 655.00    0.6943440960
 655.25    0.6942496980
 655.50    0.6941552990
 655.75    0.6940609010
 656.00    0.6939665020
 656.25    0.6937638160
 656.50    0.6935611290
 656.75    0.6933584420
 657.00    0.6931557560
 657.25    0.6931633710
 657.50    0.6931709860
 657.75    0.6931786010
 658.00    0.6931862160
 658.25    0.6929327770
 658.50    0.6926793370
 658.75    0.6924258970
 659.00    0.6921724580
 659.25    0.6921772560
 659.50    0.6921820550
 659.75    0.6921868540
 660.00    0.6921916520
 660.25    0.6919779420
 660.50    0.6917642320
 660.75    0.6915505220
 661.00    0.6913368120
 661.25    0.6911926840
 661.50    0.6910485570
 661.75    0.6909044300
 662.00    0.6907603030
 662.25    0.6904615750
 662.50    0.6901628470
 662.75    0.6898641200
 663.00    0.6895653920
 663.25    0.6894719490
 663.50    0.6893785060
 663.75    0.6892850640
 664.00    0.6891916210
 664.25    0.6891177150
 664.50    0.6890438080
 664.75    0.6889699020
 665.00    0.6888959960
 665.25    0.6888749690
 665.50    0.6888539430
 665.75    0.6888329170
 666.00    0.6888118900
 666.25    0.6887372140
 666.50    0.6886625380
 666.75    0.6885878620
 667.00    0.6885131860
 667.25    0.6883170760
 667.50    0.6881209660
 667.75    0.6879248560
 668.00    0.6877287470
 668.25    0.6874733650
 668.50    0.6872179830
 668.75    0.6869626010
 669.00    0.6867072190
 669.25    0.6864509040
 669.50    0.6861945900
 669.75    0.6859382750
 670.00    0.6856819610
 670.25    0.6856606070
 670.50    0.6856392530
 670.75    0.6856178990
 671.00    0.6855965450
 671.25    0.6852848260
 671.50    0.6849731080
 671.75    0.6846613890
 672.00    0.6843496700
 672.25    0.6844551500
 672.50    0.6845606300
 672.75    0.6846661100
 673.00    0.6847715900
 673.25    0.6845804550
 673.50    0.6843893210
 673.75    0.6841981860
 674.00    0.6840070520
 674.25    0.6837872360
 674.50    0.6835674210
 674.75    0.6833476050
 675.00    0.6831277900
 675.25    0.6828344330
 675.50    0.6825410750
 675.75    0.6822477180
 676.00    0.6819543610
 676.25    0.6817763740
 676.50    0.6815983860
 676.75    0.6814203990
 677.00    0.6812424120
 677.25    0.6811373450
 677.50    0.6810322780
 677.75    0.6809272120
 678.00    0.6808221450
 678.25    0.6807218070
 678.50    0.6806214690
 678.75    0.6805211310
 679.00    0.6804207920
 679.25    0.6801908410
 679.50    0.6799608890
 679.75    0.6797309380
 680.00    0.6795009870
 680.25    0.6792794070
 680.50    0.6790578280
 680.75    0.6788362480
 681.00    0.6786146690
 681.25    0.6783553740
 681.50    0.6780960790
 681.75    0.6778367840
 682.00    0.6775774890
 682.25    0.6773749190
 682.50    0.6771723490
 682.75    0.6769697790
 683.00    0.6767672090
 683.25    0.6765643390
 683.50    0.6763614680
 683.75    0.6761585970
 684.00    0.6759557260
 684.25    0.6757920410
 684.50    0.6756283550
 684.75    0.6754646700
 685.00    0.6753009840
 685.25    0.6751113790
 685.50    0.6749217730
 685.75    0.6747321680
 686.00    0.6745425630
 686.25    0.6743304200
 686.50    0.6741182760
 686.75    0.6739061330
 687.00    0.6736939900
 687.25    0.6734810950
 687.50    0.6732682000
 687.75    0.6730553040
 688.00    0.6728424090
 688.25    0.6727703770
 688.50    0.6726983450
 688.75    0.6726263120
 689.00    0.6725542800
 689.25    0.6722088010
 689.50    0.6718633220
 689.75    0.6715178430
 690.00    0.6711723650
 690.25    0.6710574850
 690.50    0.6709426050
 690.75    0.6708277250
 691.00    0.6707128460
 691.25    0.6707358290
 691.50    0.6707588120
 691.75    0.6707817950
 692.00    0.6708047780
 692.25    0.6702284110
 692.50    0.6696520450
 692.75    0.6690756780
 693.00    0.6684993120
 693.25    0.6684584020
 693.50    0.6684174920
 693.75    0.6683765820
 694.00    0.6683356720
 694.25    0.6680017240
 694.50    0.6676677750
 694.75    0.6673338260
 695.00    0.6669998780
 695.25    0.6668524870
 695.50    0.6667050960
 695.75    0.6665577050
 696.00    0.6664103150
 696.25    0.6661781850
 696.50    0.6659460550
 696.75    0.6657139250
 697.00    0.6654817940
 697.25    0.6652269920
 697.50    0.6649721890
 697.75    0.6647173870
 698.00    0.6644625840
 698.25    0.6643856880
 698.50    0.6643087920
 698.75    0.6642318960
 699.00    0.6641550000
 699.25    0.6639091040
 699.50    0.6636632070
 699.75    0.6634173110
 700.00    0.6631714150
 700.25    0.6629538450
 700.50    0.6627362750
 700.75    0.6625187060
 701.00    0.6623011360
 701.25    0.6617310240
 701.50    0.6611609120
 701.75    0.6605908000
 702.00    0.6600206880
 702.25    0.6597436200
 702.50    0.6594665520
 702.75    0.6591894830
 703.00    0.6589124150
 703.25    0.6588861490
 703.50    0.6588598840
 703.75    0.6588336180
 704.00    0.6588073520
 704.25    0.6586031640
 704.50    0.6583989750
 704.75    0.6581947870
 705.00    0.6579905980
 705.25    0.6577978860
 705.50    0.6576051740
 705.75    0.6574124620
 706.00    0.6572197490
 706.25    0.6568270300
 706.50    0.6564343110
 706.75    0.6560415920
 707.00    0.6556488730
 707.25    0.6552672980
 707.50    0.6548857230
 707.75    0.6545041470
 708.00    0.6541225720
 708.25    0.6538149610
 708.50    0.6535073510
 708.75    0.6531997400
 709.00    0.6528921290
 709.25    0.6527102720
 709.50    0.6525284140
 709.75    0.6523465560
 710.00    0.6521646990
 710.25    0.6519488910
 710.50    0.6517330840
 710.75    0.6515172760
 711.00    0.6513014690
 711.25    0.6510495540
 711.50    0.6507976390
 711.75    0.6505457240
 712.00    0.6502938090
 712.25    0.6500150330
 712.50    0.6497362560
 712.75    0.6494574800
 713.00    0.6491787030
 713.25    0.6489535500
 713.50    0.6487283960
 713.75    0.6485032420
 714.00    0.6482780890
 714.25    0.6478550320
 714.50    0.6474319750
 714.75    0.6470089190
 715.00    0.6465858620
 715.25    0.6463453610
 715.50    0.6461048610
 715.75    0.6458643600
 716.00    0.6456238600
 716.25    0.6453775090
 716.50    0.6451311570
 716.75    0.6448848060
 717.00    0.6446384540
 717.25    0.6442112280
 717.50    0.6437840020
 717.75    0.6433567770
 718.00    0.6429295510
 718.25    0.6425976490
 718.50    0.6422657470
 718.75    0.6419338460
 719.00    0.6416019440
 719.25    0.6415660290
 719.50    0.6415301150
 719.75    0.6414942000
 720.00    0.6414582860
 720.25    0.6408909730
 720.50    0.6403236610
 720.75    0.6397563480
 721.00    0.6391890360
 721.25    0.6388235690
 721.50    0.6384581010
 721.75    0.6380926340
 722.00    0.6377271670
 722.25    0.6373177960
 722.50    0.6369084260
 722.75    0.6364990550
 723.00    0.6360896850
 723.25    0.6360281890
 723.50    0.6359666940
 723.75    0.6359051980
 724.00    0.6358437030
 724.25    0.6353609610
 724.50    0.6348782190
 724.75    0.6343954770
 725.00    0.6339127350
 725.25    0.6338854500
 725.50    0.6338581650
 725.75    0.6338308800
 726.00    0.6338035950
 726.25    0.6333517710
 726.50    0.6328999460
 726.75    0.6324481210
 727.00    0.6319962960
 727.25    0.6314531030
 727.50    0.6309099090
 727.75    0.6303667150
 728.00    0.6298235220
 728.25    0.6294784490
 728.50    0.6291333770
 728.75    0.6287883050
 729.00    0.6284432330
 729.25    0.6280014880
 729.50    0.6275597440
 729.75    0.6271179990
 730.00    0.6266762540
 730.25    0.6265199580
 730.50    0.6263636620
 730.75    0.6262073660
 731.00    0.6260510690
 731.25    0.6256501230
 731.50    0.6252491770
 731.75    0.6248482310
 732.00    0.6244472840
 732.25    0.6241678510
 732.50    0.6238884180
 732.75    0.6236089850
 733.00    0.6233295520
 733.25    0.6229892690
 733.50    0.6226489850
 733.75    0.6223087010
 734.00    0.6219684180
 734.25    0.6216022960
 734.50    0.6212361740
 734.75    0.6208700520
 735.00    0.6205039300
 735.25    0.6199694290
 735.50    0.6194349270
 735.75    0.6189004260
 736.00    0.6183659240
 736.25    0.6179359510
 736.50    0.6175059790
 736.75    0.6170760060
 737.00    0.6166460330
 737.25    0.6164198210
 737.50    0.6161936080
 737.75    0.6159673960
 738.00    0.6157411830
 738.25    0.6154842590
 738.50    0.6152273340
 738.75    0.6149704100
 739.00    0.6147134860
 739.25    0.6143244220
 739.50    0.6139353590
 739.75    0.6135462960
 740.00    0.6131572330
 740.25    0.6126757350
 740.50    0.6121942370
 740.75    0.6117127380
 741.00    0.6112312400
 741.25    0.6107910300
 741.50    0.6103508200
 741.75    0.6099106090
 742.00    0.6094703990
 742.25    0.6091465070
 742.50    0.6088226140
 742.75    0.6084987210
 743.00    0.6081748290
 743.25    0.6076859980
 743.50    0.6071971670
 743.75    0.6067083370
 744.00    0.6062195060
 744.25    0.6059181550
 744.50    0.6056168040
 744.75    0.6053154530
 745.00    0.6050141020
 745.25    0.6044691170
 745.50    0.6039241330
 745.75    0.6033791480
 746.00    0.6028341640
 746.25    0.6024117540
 746.50    0.6019893440
 746.75    0.6015669340
 747.00    0.6011445240
 747.25    0.6009316780
 747.50    0.6007188320
 747.75    0.6005059860
 748.00    0.6002931410
 748.25    0.5998476380
 748.50    0.5994021360
 748.75    0.5989566330
 749.00    0.5985111310
 749.25    0.5980060820
 749.50    0.5975010340
 749.75    0.5969959860
 750.00    0.5964909370
 750.25    0.5961375250
 750.50    0.5957841130
 750.75    0.5954307010
 751.00    0.5950772890
 751.25    0.5947482170
 751.50    0.5944191450
 751.75    0.5940900730
 752.00    0.5937610000
 752.25    0.5931298620
 752.50    0.5924987230
 752.75    0.5918675850
 753.00    0.5912364460
 753.25    0.5907838650
 753.50    0.5903312840
 753.75    0.5898787040
 754.00    0.5894261230
 754.25    0.5892090060
 754.50    0.5889918900
 754.75    0.5887747730
 755.00    0.5885576570
 755.25    0.5880979120
 755.50    0.5876381680
 755.75    0.5871784230
 756.00    0.5867186790
 756.25    0.5863187380
 756.50    0.5859187980
 756.75    0.5855188570
 757.00    0.5851189170
 757.25    0.5846362900
 757.50    0.5841536630
 757.75    0.5836710360
 758.00    0.5831884090
 758.25    0.5828060220
 758.50    0.5824236350
 758.75    0.5820412480
 759.00    0.5816588610
 759.25    0.5810187850
 759.50    0.5803787090
 759.75    0.5797386330
 760.00    0.5790985570
 760.25    0.5787002040
 760.50    0.5783018500
 760.75    0.5779034970
 761.00    0.5775051430
 761.25    0.5771818040
 761.50    0.5768584650
 761.75    0.5765351260
 762.00    0.5762117870
 762.25    0.5757766350
 762.50    0.5753414840
 762.75    0.5749063330
 763.00    0.5744711820
 763.25    0.5740940060
 763.50    0.5737168310
 763.75    0.5733396550
 764.00    0.5729624800
 764.25    0.5725102340
 764.50    0.5720579880
 764.75    0.5716057420
 765.00    0.5711534960
 765.25    0.5706349290
 765.50    0.5701163620
 765.75    0.5695977950
 766.00    0.5690792280
 766.25    0.5684349750
 766.50    0.5677907220
 766.75    0.5671464680
 767.00    0.5665022150
 767.25    0.5662148630
 767.50    0.5659275110
 767.75    0.5656401590
 768.00    0.5653528070
 768.25    0.5646543200
 768.50    0.5639558330
 768.75    0.5632573460
 769.00    0.5625588590
 769.25    0.5620203940
 769.50    0.5614819300
 769.75    0.5609434650
 770.00    0.5604050010
 770.25    0.5600386910
 770.50    0.5596723820
 770.75    0.5593060720
 771.00    0.5589397630
 771.25    0.5583819050
 771.50    0.5578240470
 771.75    0.5572661890
 772.00    0.5567083310
 772.25    0.5562033300
 772.50    0.5556983280
 772.75    0.5551933260
 773.00    0.5546883240
 773.25    0.5543551670
 773.50    0.5540220100
 773.75    0.5536888520
 774.00    0.5533556950
 774.25    0.5528338220
 774.50    0.5523119480
 774.75    0.5517900750
 775.00    0.5512682010
 775.25    0.5507375600
 775.50    0.5502069200
 775.75    0.5496762790
 776.00    0.5491456380
 776.25    0.5484454250
 776.50    0.5477452110
 776.75    0.5470449980
 777.00    0.5463447840
 777.25    0.5459514820
 777.50    0.5455581810
 777.75    0.5451648790
 778.00    0.5447715770
 778.25    0.5444563240
 778.50    0.5441410700
 778.75    0.5438258170
 779.00    0.5435105630
 779.25    0.5427408820
 779.50    0.5419712020
 779.75    0.5412015210
 780.00    0.5404318410
 780.25    0.5399165480
 780.50    0.5394012560
 780.75    0.5388859640
 781.00    0.5383706720
 781.25    0.5381072080
 781.50    0.5378437450
 781.75    0.5375802810
 782.00    0.5373168180
 782.25    0.5368405010
 782.50    0.5363641840
 782.75    0.5358878670
 783.00    0.5354115510
 783.25    0.5346652910
 783.50    0.5339190320
 783.75    0.5331727730
 784.00    0.5324265140
 784.25    0.5318361970
 784.50    0.5312458810
 784.75    0.5306555650
 785.00    0.5300652490
 785.25    0.5295635430
 785.50    0.5290618370
 785.75    0.5285601320
 786.00    0.5280584260
 786.25    0.5275218690
 786.50    0.5269853120
 786.75    0.5264487550
 787.00    0.5259121980
 787.25    0.5254241090
 787.50    0.5249360200
 787.75    0.5244479310
 788.00    0.5239598420
 788.25    0.5234894670
 788.50    0.5230190920
 788.75    0.5225487160
 789.00    0.5220783410
 789.25    0.5214734950
 789.50    0.5208686500
 789.75    0.5202638050
 790.00    0.5196589590
 790.25    0.5191281550
 790.50    0.5185973510
 790.75    0.5180665460
 791.00    0.5175357420
 791.25    0.5170809460
 791.50    0.5166261510
 791.75    0.5161713550
 792.00    0.5157165590
 792.25    0.5152151270
 792.50    0.5147136950
 792.75    0.5142122630
 793.00    0.5137108310
 793.25    0.5130773340
 793.50    0.5124438370
 793.75    0.5118103400
 794.00    0.5111768420
 794.25    0.5105074690
 794.50    0.5098380960
 794.75    0.5091687230
 795.00    0.5084993500
 795.25    0.5079464790
 795.50    0.5073936080
 795.75    0.5068407360
 796.00    0.5062878650
 796.25    0.5057302960
 796.50    0.5051727280
 796.75    0.5046151590
 797.00    0.5040575910
 797.25    0.5035541700
 797.50    0.5030507500
 797.75    0.5025473300
 798.00    0.5020439100
 798.25    0.5013779040
 798.50    0.5007118980
 798.75    0.5000458920
 799.00    0.4993798860
 799.25    0.4987366160
 799.50    0.4980933470
 799.75    0.4974500770
 800.00    0.4968068080
 800.25    0.4961689330
 800.50    0.4955310590
 800.75    0.4948931840
 801.00    0.4942553090
 801.25    0.4937391890
 801.50    0.4932230690
 801.75    0.4927069500
 802.00    0.4921908300
 802.25    0.4917186290
 802.50    0.4912464280
 802.75    0.4907742280
 803.00    0.4903020270
 803.25    0.4896820730
 803.50    0.4890621180
 803.75    0.4884421640
 804.00    0.4878222100
 804.25    0.4871459100
 804.50    0.4864696090
 804.75    0.4857933090
 805.00    0.4851170090
 805.25    0.4844230280
 805.50    0.4837290470
 805.75    0.4830350660
 806.00    0.4823410850
 806.25    0.4818005990
 806.50    0.4812601130
 806.75    0.4807196260
 807.00    0.4801791400
 807.25    0.4795152290
 807.50    0.4788513180
 807.75    0.4781874070
 808.00    0.4775234950
 808.25    0.4769965360
 808.50    0.4764695770
 808.75    0.4759426180
 809.00    0.4754156580
 809.25    0.4747832630
 809.50    0.4741508680
 809.75    0.4735184720
 810.00    0.4728860770
 810.25    0.4723469690
 810.50    0.4718078610
 810.75    0.4712687540
 811.00    0.4707296460
 811.25    0.4700058790
 811.50    0.4692821130
 811.75    0.4685583460
 812.00    0.4678345790
 812.25    0.4675310890
 812.50    0.4672275990
 812.75    0.4669241080
 813.00    0.4666206180
 813.25    0.4660501650
 813.50    0.4654797130
 813.75    0.4649092600
 814.00    0.4643388080
 814.25    0.4636836390
 814.50    0.4630284690
 814.75    0.4623733000
 815.00    0.4617181310
 815.25    0.4608926100
 815.50    0.4600670880
 815.75    0.4592415670
 816.00    0.4584160460
 816.25    0.4577870980
 816.50    0.4571581510
 816.75    0.4565292030
 817.00    0.4559002550
 817.25    0.4553692690
 817.50    0.4548382840
 817.75    0.4543072980
 818.00    0.4537763120
 818.25    0.4531088760
 818.50    0.4524414400
 818.75    0.4517740040
 819.00    0.4511065680
 819.25    0.4503927210
 819.50    0.4496788750
 819.75    0.4489650290
 820.00    0.4482511820
 820.25    0.4476166210
 820.50    0.4469820600
 820.75    0.4463474990
 821.00    0.4457129370
 821.25    0.4451956000
 821.50    0.4446782620
 821.75    0.4441609250
 822.00    0.4436435880
 822.25    0.4430048340
 822.50    0.4423660810
 822.75    0.4417273280
 823.00    0.4410885740
 823.25    0.4405093600
 823.50    0.4399301460
 823.75    0.4393509320
 824.00    0.4387717180
 824.25    0.4380199390
 824.50    0.4372681600
 824.75    0.4365163810
 825.00    0.4357646020
 825.25    0.4350922730
 825.50    0.4344199430
 825.75    0.4337476140
 826.00    0.4330752850
 826.25    0.4324895770
 826.50    0.4319038700
 826.75    0.4313181630
 827.00    0.4307324560
 827.25    0.4300094510
 827.50    0.4292864450
 827.75    0.4285634400
 828.00    0.4278404340
 828.25    0.4271761580
 828.50    0.4265118810
 828.75    0.4258476050
 829.00    0.4251833280
 829.25    0.4246747630
 829.50    0.4241661980
 829.75    0.4236576330
 830.00    0.4231490680
 830.25    0.4225368560
 830.50    0.4219246440
 830.75    0.4213124320
 831.00    0.4207002210
 831.25    0.4200592190
 831.50    0.4194182180
 831.75    0.4187772170
 832.00    0.4181362150
 832.25    0.4175326140
 832.50    0.4169290120
 832.75    0.4163254100
 833.00    0.4157218080
 833.25    0.4151667900
 833.50    0.4146117730
 833.75    0.4140567550
 834.00    0.4135017370
 834.25    0.4129300750
 834.50    0.4123584130
 834.75    0.4117867510
 835.00    0.4112150890
 835.25    0.4105218690
 835.50    0.4098286490
 835.75    0.4091354280
 836.00    0.4084422080
 836.25    0.4075918900
 836.50    0.4067415720
 836.75    0.4058912550
 837.00    0.4050409370
 837.25    0.4043737070
 837.50    0.4037064770
 837.75    0.4030392480
 838.00    0.4023720180
 838.25    0.4018065300
 838.50    0.4012410420
 838.75    0.4006755540
 839.00    0.4001100660
 839.25    0.3994883520
 839.50    0.3988666370
 839.75    0.3982449230
 840.00    0.3976232080
 840.25    0.3968694680
 840.50    0.3961157280
 840.75    0.3953619880
 841.00    0.3946082480
 841.25    0.3939633230
 841.50    0.3933183990
 841.75    0.3926734740
 842.00    0.3920285500
 842.25    0.3914755110
 842.50    0.3909224730
 842.75    0.3903694340
 843.00    0.3898163960
 843.25    0.3894762410
 843.50    0.3891360870
 843.75    0.3887959320
 844.00    0.3884557770
 844.25    0.3876465860
 844.50    0.3868373950
 844.75    0.3860282040
 845.00    0.3852190130
 845.25    0.3843859170
 845.50    0.3835528210
 845.75    0.3827197250
 846.00    0.3818866290
 846.25    0.3811603490
 846.50    0.3804340690
 846.75    0.3797077890
 847.00    0.3789815090
 847.25    0.3783099290
 847.50    0.3776383500
 847.75    0.3769667710
 848.00    0.3762951910
 848.25    0.3756988510
 848.50    0.3751025100
 848.75    0.3745061690
 849.00    0.3739098280
 849.25    0.3731406940
 849.50    0.3723715590
 849.75    0.3716024250
 850.00    0.3708332900
 850.25    0.3702246750
 850.50    0.3696160590
 850.75    0.3690074440
 851.00    0.3683988280
 851.25    0.3677971830
 851.50    0.3671955380
 851.75    0.3665938930
 852.00    0.3659922490
 852.25    0.3652076180
 852.50    0.3644229870
 852.75    0.3636383560
 853.00    0.3628537250
 853.25    0.3622517730
 853.50    0.3616498210
 853.75    0.3610478680
 854.00    0.3604459160
 854.25    0.3599164020
 854.50    0.3593868880
 854.75    0.3588573740
 855.00    0.3583278600
 855.25    0.3576911640
 855.50    0.3570544680
 855.75    0.3564177710
 856.00    0.3557810750
 856.25    0.3552232440
 856.50    0.3546654130
 856.75    0.3541075810
 857.00    0.3535497500
 857.25    0.3527376310
 857.50    0.3519255120
 857.75    0.3511133930
 858.00    0.3503012740
 858.25    0.3494745750
 858.50    0.3486478760
 858.75    0.3478211780
 859.00    0.3469944790
 859.25    0.3465223450
 859.50    0.3460502110
 859.75    0.3455780760
 860.00    0.3451059420
 860.25    0.3443615600
 860.50    0.3436171790
 860.75    0.3428727970
 861.00    0.3421284150
 861.25    0.3416789860
 861.50    0.3412295570
 861.75    0.3407801280
 862.00    0.3403306990
 862.25    0.3397285090
 862.50    0.3391263200
 862.75    0.3385241300
 863.00    0.3379219400
 863.25    0.3371745500
 863.50    0.3364271600
 863.75    0.3356797700
 864.00    0.3349323800
 864.25    0.3341132750
 864.50    0.3332941700
 864.75    0.3324750650
 865.00    0.3316559600
 865.25    0.3311858330
 865.50    0.3307157050
 865.75    0.3302455780
 866.00    0.3297754500
 866.25    0.3289996550
 866.50    0.3282238600
 866.75    0.3274480640
 867.00    0.3266722690
 867.25    0.3256777790
 867.50    0.3246832890
 867.75    0.3236887980
 868.00    0.3226943080
 868.25    0.3223697270
 868.50    0.3220451450
 868.75    0.3217205640
 869.00    0.3213959820
 869.25    0.3208785620
 869.50    0.3203611410
 869.75    0.3198437200
 870.00    0.3193263000
 870.25    0.3185607530
 870.50    0.3177952060
 870.75    0.3170296590
 871.00    0.3162641120
 871.25    0.3156020530
 871.50    0.3149399940
 871.75    0.3142779340
 872.00    0.3136158750
 872.25    0.3133014570
 872.50    0.3129870390
 872.75    0.3126726220
 873.00    0.3123582040
 873.25    0.3117359720
 873.50    0.3111137400
 873.75    0.3104915080
 874.00    0.3098692760
 874.25    0.3091271030
 874.50    0.3083849300
 874.75    0.3076427570
 875.00    0.3069005850
 875.25    0.3063127470
 875.50    0.3057249100
 875.75    0.3051370730
 876.00    0.3045492360
 876.25    0.3038495350
 876.50    0.3031498340
 876.75    0.3024501330
 877.00    0.3017504320
 877.25    0.3010501740
 877.50    0.3003499160
 877.75    0.2996496580
 878.00    0.2989494000
 878.25    0.2981544350
 878.50    0.2973594700
 878.75    0.2965645050
 879.00    0.2957695400
 879.25    0.2950859220
 879.50    0.2944023050
 879.75    0.2937186870
 880.00    0.2930350690
 880.25    0.2925272610
 880.50    0.2920194530
 880.75    0.2915116450
 881.00    0.2910038360
 881.25    0.2904615910
 881.50    0.2899193460
 881.75    0.2893771010
 882.00    0.2888348570
 882.25    0.2881367680
 882.50    0.2874386790
 882.75    0.2867405900
 883.00    0.2860425010
 883.25    0.2853182330
 883.50    0.2845939640
 883.75    0.2838696950
 884.00    0.2831454270
 884.25    0.2825069040
 884.50    0.2818683810
 884.75    0.2812298590
 885.00    0.2805913360
 885.25    0.2799770710
 885.50    0.2793628050
 885.75    0.2787485400
 886.00    0.2781342740
 886.25    0.2775985920
 886.50    0.2770629090
 886.75    0.2765272270
 887.00    0.2759915450
 887.25    0.2755385270
 887.50    0.2750855080
 887.75    0.2746324900
 888.00    0.2741794720
 888.25    0.2735290030
 888.50    0.2728785330
 888.75    0.2722280640
 889.00    0.2715775940
 889.25    0.2709247270
 889.50    0.2702718590
 889.75    0.2696189910
 890.00    0.2689661230
 890.25    0.2683095220
 890.50    0.2676529200
 890.75    0.2669963190
 891.00    0.2663397180
 891.25    0.2656327350
 891.50    0.2649257530
 891.75    0.2642187700
 892.00    0.2635117880
 892.25    0.2628640080
 892.50    0.2622162280
 892.75    0.2615684490
 893.00    0.2609206690
 893.25    0.2604552110
 893.50    0.2599897520
 893.75    0.2595242940
 894.00    0.2590588360
 894.25    0.2583800090
 894.50    0.2577011820
 894.75    0.2570223550
 895.00    0.2563435280
 895.25    0.2557428300
 895.50    0.2551421310
 895.75    0.2545414330
 896.00    0.2539407340
 896.25    0.2534104270
 896.50    0.2528801200
 896.75    0.2523498120
 897.00    0.2518195050
 897.25    0.2511257640
 897.50    0.2504320230
 897.75    0.2497382820
 898.00    0.2490445410
 898.25    0.2483175190
 898.50    0.2475904960
 898.75    0.2468634730
 899.00    0.2461364500
 899.25    0.2455531230
 899.50    0.2449697950
 899.75    0.2443864670
 900.00    0.2438031400
 900.25    0.2432263260
 900.50    0.2426495120
 900.75    0.2420726980
 901.00    0.2414958840
 901.25    0.2408650140
 901.50    0.2402341430
 901.75    0.2396032730
 902.00    0.2389724020
 902.25    0.2383131990
 902.50    0.2376539950
 902.75    0.2369947920
 903.00    0.2363355880
 903.25    0.2357524460
 903.50    0.2351693030
 903.75    0.2345861600
 904.00    0.2340030170
 904.25    0.2333945950
 904.50    0.2327861730
 904.75    0.2321777510
 905.00    0.2315693290
 905.25    0.2310133990
 905.50    0.2304574690
 905.75    0.2299015380
 906.00    0.2293456080
 906.25    0.2286943600
 906.50    0.2280431120
 906.75    0.2273918640
 907.00    0.2267406160
 907.25    0.2261510260
 907.50    0.2255614370
 907.75    0.2249718470
 908.00    0.2243822570
 908.25    0.2238773070
 908.50    0.2233723560
 908.75    0.2228674060
 909.00    0.2223624560
 909.25    0.2217246070
 909.50    0.2210867580
 909.75    0.2204489090
 910.00    0.2198110600
 910.25    0.2191111410
 910.50    0.2184112220
 910.75    0.2177113020
 911.00    0.2170113830
 911.25    0.2163583050
 911.50    0.2157052280
 911.75    0.2150521500
 912.00    0.2143990720
 912.25    0.2138244560
 912.50    0.2132498410
 912.75    0.2126752250
 913.00    0.2121006090
 913.25    0.2116014280
 913.50    0.2111022470
 913.75    0.2106030660
 914.00    0.2101038850
 914.25    0.2095556610
 914.50    0.2090074370
 914.75    0.2084592140
 915.00    0.2079109900
 915.25    0.2073343300
 915.50    0.2067576700
 915.75    0.2061810100
 916.00    0.2056043500
 916.25    0.2050331600
 916.50    0.2044619710
 916.75    0.2038907810
 917.00    0.2033195920
 917.25    0.2026541850
 917.50    0.2019887780
 917.75    0.2013233720
 918.00    0.2006579650
 918.25    0.2000180130
 918.50    0.1993780620
 918.75    0.1987381100
 919.00    0.1980981590
 919.25    0.1975785680
 919.50    0.1970589770
 919.75    0.1965393870
 920.00    0.1960197960
 920.25    0.1954803670
 920.50    0.1949409370
 920.75    0.1944015080
 921.00    0.1938620780
 921.25    0.1932521390
 921.50    0.1926422000
 921.75    0.1920322600
 922.00    0.1914223210
 922.25    0.1908492090
 922.50    0.1902760970
 922.75    0.1897029850
 923.00    0.1891298740
 923.25    0.1885559890
 923.50    0.1879821040
 923.75    0.1874082200
 924.00    0.1868343350
 924.25    0.1862381740
 924.50    0.1856420130
 924.75    0.1850458520
 925.00    0.1844496910
 925.25    0.1838481410
 925.50    0.1832465920
 925.75    0.1826450420
 926.00    0.1820434930
 926.25    0.1815187180
 926.50    0.1809939430
 926.75    0.1804691670
 927.00    0.1799443920
 927.25    0.1794269700
 927.50    0.1789095480
 927.75    0.1783921260
 928.00    0.1778747040
 928.25    0.1773803560
 928.50    0.1768860090
 928.75    0.1763916610
 929.00    0.1758973140
 929.25    0.1754055970
 929.50    0.1749138810
 929.75    0.1744221650
 930.00    0.1739304480
 930.25    0.1733316470
 930.50    0.1727328450
 930.75    0.1721340440
 931.00    0.1715352420
 931.25    0.1709953750
 931.50    0.1704555080
 931.75    0.1699156410
 932.00    0.1693757740
 932.25    0.1688502450
 932.50    0.1683247170
 932.75    0.1677991890
 933.00    0.1672736610
 933.25    0.1667391680
 933.50    0.1662046750
 933.75    0.1656701820
 934.00    0.1651356890
 934.25    0.1645978860
 934.50    0.1640600830
 934.75    0.1635222790
 935.00    0.1629844760
 935.25    0.1624894630
 935.50    0.1619944490
 935.75    0.1614994360
 936.00    0.1610044220
 936.25    0.1604969840
 936.50    0.1599895460
 936.75    0.1594821080
 937.00    0.1589746700
 937.25    0.1584079960
 937.50    0.1578413220
 937.75    0.1572746480
 938.00    0.1567079730
 938.25    0.1561711950
 938.50    0.1556344160
 938.75    0.1550976370
 939.00    0.1545608580
 939.25    0.1540295790
 939.50    0.1534983000
 939.75    0.1529670200
 940.00    0.1524357410
 940.25    0.1519603220
 940.50    0.1514849030
 940.75    0.1510094840
 941.00    0.1505340650
 941.25    0.1500521750
 941.50    0.1495702860
 941.75    0.1490883960
 942.00    0.1486065070
 942.25    0.1480788350
 942.50    0.1475511640
 942.75    0.1470234930
 943.00    0.1464958210
 943.25    0.1460211470
 943.50    0.1455464730
 943.75    0.1450718000
 944.00    0.1445971260
 944.25    0.1440829310
 944.50    0.1435687360
 944.75    0.1430545420
 945.00    0.1425403470
 945.25    0.1420109130
 945.50    0.1414814780
 945.75    0.1409520430
 946.00    0.1404226090
 946.25    0.1399311230
 946.50    0.1394396380
 946.75    0.1389481530
 947.00    0.1384566670
 947.25    0.1379960890
 947.50    0.1375355100
 947.75    0.1370749320
 948.00    0.1366143530
 948.25    0.1361300330
 948.50    0.1356457130
 948.75    0.1351613940
 949.00    0.1346770740
 949.25    0.1342140570
 949.50    0.1337510410
 949.75    0.1332880240
 950.00    0.1328250070
 950.25    0.1323628670
 950.50    0.1319007270
 950.75    0.1314385860
 951.00    0.1309764460
 951.25    0.1305523190
 951.50    0.1301281930
 951.75    0.1297040660
 952.00    0.1292799390
 952.25    0.1288059470
 952.50    0.1283319540
 952.75    0.1278579610
 953.00    0.1273839680
 953.25    0.1269310030
 953.50    0.1264780370
 953.75    0.1260250720
 954.00    0.1255721060
 954.25    0.1250763250
 954.50    0.1245805450
 954.75    0.1240847640
 955.00    0.1235889830
 955.25    0.1230333180
 955.50    0.1224776520
 955.75    0.1219219860
 956.00    0.1213663200
 956.25    0.1209435340
 956.50    0.1205207490
 956.75    0.1200979640
 957.00    0.1196751790
 957.25    0.1192597630
 957.50    0.1188443480
 957.75    0.1184289330
 958.00    0.1180135180
 958.25    0.1175614540
 958.50    0.1171093900
 958.75    0.1166573250
 959.00    0.1162052610
 959.25    0.1157346510
 959.50    0.1152640420
 959.75    0.1147934320
 960.00    0.1143228220
 960.25    0.1138459580
 960.50    0.1133690940
 960.75    0.1128922290
 961.00    0.1124153650
 961.25    0.1119349120
 961.50    0.1114544590
 961.75    0.1109740050
 962.00    0.1104935520
 962.25    0.1100391150
 962.50    0.1095846780
 962.75    0.1091302410
 963.00    0.1086758040
 963.25    0.1082362600
 963.50    0.1077967160
 963.75    0.1073571710
 964.00    0.1069176270
 964.25    0.1065048860
 964.50    0.1060921460
 964.75    0.1056794060
 965.00    0.1052666650
 965.25    0.1048631500
 965.50    0.1044596350
 965.75    0.1040561200
 966.00    0.1036526050
 966.25    0.1032405380
 966.50    0.1028284710
 966.75    0.1024164050
 967.00    0.1020043380
 967.25    0.1015631140
 967.50    0.1011218890
 967.75    0.1006806650
 968.00    0.1002394410
 968.25    0.0997934734
 968.50    0.0993475059
 968.75    0.0989015385
 969.00    0.0984555711
 969.25    0.0980309788
 969.50    0.0976063865
 969.75    0.0971817941
 970.00    0.0967572018
 970.25    0.0963246797
 970.50    0.0958921576
 970.75    0.0954596356
 971.00    0.0950271135
 971.25    0.0946195398
 971.50    0.0942119662
 971.75    0.0938043926
 972.00    0.0933968190
 972.25    0.0930176179
 972.50    0.0926384169
 972.75    0.0922592158
 973.00    0.0918800147
 973.25    0.0915231215
 973.50    0.0911662283
 973.75    0.0908093352
 974.00    0.0904524420
 974.25    0.0900834553
 974.50    0.0897144686
 974.75    0.0893454818
 975.00    0.0889764951
 975.25    0.0885757702
 975.50    0.0881750453
 975.75    0.0877743203
 976.00    0.0873735954
 976.25    0.0869670673
 976.50    0.0865605393
 976.75    0.0861540113
 977.00    0.0857474833
 977.25    0.0853459729
 977.50    0.0849444624
 977.75    0.0845429520
 978.00    0.0841414416
 978.25    0.0837554672
 978.50    0.0833694928
 978.75    0.0829835184
 979.00    0.0825975439
 979.25    0.0822198267
 979.50    0.0818421094
 979.75    0.0814643921
 980.00    0.0810866748
 980.25    0.0807331922
 980.50    0.0803797096
 980.75    0.0800262270
 981.00    0.0796727444
 981.25    0.0793269200
 981.50    0.0789810956
 981.75    0.0786352712
 982.00    0.0782894467
 982.25    0.0779368837
 982.50    0.0775843207
 982.75    0.0772317577
 983.00    0.0768791947
 983.25    0.0765312782
 983.50    0.0761833616
 983.75    0.0758354451
 984.00    0.0754875286
 984.25    0.0751453134
 984.50    0.0748030983
 984.75    0.0744608831
 985.00    0.0741186680
 985.25    0.0737488812
 985.50    0.0733790944
 985.75    0.0730093077
 986.00    0.0726395209
 986.25    0.0722938193
 986.50    0.0719481177
 986.75    0.0716024161
 987.00    0.0712567145
 987.25    0.0709103708
 987.50    0.0705640272
 987.75    0.0702176835
 988.00    0.0698713399
 988.25    0.0695560694
 988.50    0.0692407988
 988.75    0.0689255283
 989.00    0.0686102578
 989.25    0.0682991895
 989.50    0.0679881212
 989.75    0.0676770529
 990.00    0.0673659846
 990.25    0.0670464674
 990.50    0.0667269503
 990.75    0.0664074332
 991.00    0.0660879160
 991.25    0.0657729001
 991.50    0.0654578843
 991.75    0.0651428684
 992.00    0.0648278525
 992.25    0.0645005746
 992.50    0.0641732968
 992.75    0.0638460189
 993.00    0.0635187411
 993.25    0.0631896590
 993.50    0.0628605769
 993.75    0.0625314948
 994.00    0.0622024127
 994.25    0.0618830794
 994.50    0.0615637460
 994.75    0.0612444127
 995.00    0.0609250794
 995.25    0.0606063792
 995.50    0.0602876790
 995.75    0.0599689789
 996.00    0.0596502787
 996.25    0.0593536321
 996.50    0.0590569856
 996.75    0.0587603390
 997.00    0.0584636924
 997.25    0.0581878694
 997.50    0.0579120464
 997.75    0.0576362233
 998.00    0.0573604003
 998.25    0.0570909850
 998.50    0.0568215697
 998.75    0.0565521544
 999.00    0.0562827391
 999.25    0.0559972794
 999.50    0.0557118197
 999.75    0.0554263600
1000.00    0.0551409003
1000.25    0.0548474111
1000.50    0.0545539219
1000.75    0.0542604327
1001.00    0.0539669435
1001.25    0.0536789713
1001.50    0.0533909990
1001.75    0.0531030267
1002.00    0.0528150545
1002.25    0.0525316595
1002.50    0.0522482645
1002.75    0.0519648695
1003.00    0.0516814745
1003.25    0.0514013535
1003.50    0.0511212324
1003.75    0.0508411113
1004.00    0.0505609902
1004.25    0.0502972333
1004.50    0.0500334764
1004.75    0.0497697195
1005.00    0.0495059626
1005.25    0.0492479274
1005.50    0.0489898922
1005.75    0.0487318570
1006.00    0.0484738219
1006.25    0.0482237031
1006.50    0.0479735844
1006.75    0.0477234657
1007.00    0.0474733470
1007.25    0.0472233412
1007.50    0.0469733354
1007.75    0.0467233295
1008.00    0.0464733237
1008.25    0.0462227274
1008.50    0.0459721310
1008.75    0.0457215347
1009.00    0.0454709384
1009.25    0.0452083577
1009.50    0.0449457769
1009.75    0.0446831962
1010.00    0.0444206155
1010.25    0.0441651110
1010.50    0.0439096066
1010.75    0.0436541021
1011.00    0.0433985977
1011.25    0.0431487446
1011.50    0.0428988915
1011.75    0.0426490384
1012.00    0.0423991853
1012.25    0.0421592693
1012.50    0.0419193533
1012.75    0.0416794373
1013.00    0.0414395213
1013.25    0.0412053828
1013.50    0.0409712442
1013.75    0.0407371057
1014.00    0.0405029672
1014.25    0.0402795594
1014.50    0.0400561515
1014.75    0.0398327436
1015.00    0.0396093358
1015.25    0.0393947458
1015.50    0.0391801558
1015.75    0.0389655658
1016.00    0.0387509758
1016.25    0.0385341478
1016.50    0.0383173198
1016.75    0.0381004918
1017.00    0.0378836638
1017.25    0.0376503344
1017.50    0.0374170051
1017.75    0.0371836757
1018.00    0.0369503464
1018.25    0.0367318985
1018.50    0.0365134507
1018.75    0.0362950029
1019.00    0.0360765551
1019.25    0.0358516752
1019.50    0.0356267952
1019.75    0.0354019153
1020.00    0.0351770354
1020.25    0.0349654251
1020.50    0.0347538148
1020.75    0.0345422046
1021.00    0.0343305943
1021.25    0.0341269827
1021.50    0.0339233711
1021.75    0.0337197594
1022.00    0.0335161478
1022.25    0.0333182711
1022.50    0.0331203945
1022.75    0.0329225178
1023.00    0.0327246411
1023.25    0.0325314153
1023.50    0.0323381896
1023.75    0.0321449638
1024.00    0.0319517380
1024.25    0.0317667179
1024.50    0.0315816978
1024.75    0.0313966777
1025.00    0.0312116576
1025.25    0.0310207556
1025.50    0.0308298536
1025.75    0.0306389516
1026.00    0.0304480496
1026.25    0.0302514793
1026.50    0.0300549090
1026.75    0.0298583387
1027.00    0.0296617684
1027.25    0.0294691808
1027.50    0.0292765931
1027.75    0.0290840055
1028.00    0.0288914179
1028.25    0.0287055386
1028.50    0.0285196594
1028.75    0.0283337802
1029.00    0.0281479009
1029.25    0.0279628779
1029.50    0.0277778548
1029.75    0.0275928317
1030.00    0.0274078086
1030.25    0.0272340372
1030.50    0.0270602658
1030.75    0.0268864944
1031.00    0.0267127229
1031.25    0.0265407193
1031.50    0.0263687157
1031.75    0.0261967121
1032.00    0.0260247084
1032.25    0.0258586042
1032.50    0.0256925000
1032.75    0.0255263958
1033.00    0.0253602915
1033.25    0.0251943021
1033.50    0.0250283126
1033.75    0.0248623231
1034.00    0.0246963337
1034.25    0.0245326246
1034.50    0.0243689155
1034.75    0.0242052065
1035.00    0.0240414974
1035.25    0.0238819578
1035.50    0.0237224182
1035.75    0.0235628785
1036.00    0.0234033389
1036.25    0.0232428336
1036.50    0.0230823284
1036.75    0.0229218232
1037.00    0.0227613180
1037.25    0.0226047196
1037.50    0.0224481212
1037.75    0.0222915228
1038.00    0.0221349244
1038.25    0.0219807989
1038.50    0.0218266734
1038.75    0.0216725479
1039.00    0.0215184225
1039.25    0.0213699313
1039.50    0.0212214400
1039.75    0.0210729488
1040.00    0.0209244576
1040.25    0.0207791784
1040.50    0.0206338993
1040.75    0.0204886201
1041.00    0.0203433409
1041.25    0.0201998705
1041.50    0.0200564001
1041.75    0.0199129297
1042.00    0.0197694593
1042.25    0.0196310641
1042.50    0.0194926690
1042.75    0.0193542739
1043.00    0.0192158788
1043.25    0.0190768546
1043.50    0.0189378305
1043.75    0.0187988064
1044.00    0.0186597822
1044.25    0.0185230674
1044.50    0.0183863525
1044.75    0.0182496376
1045.00    0.0181129228
1045.25    0.0179758874
1045.50    0.0178388521
1045.75    0.0177018167
1046.00    0.0175647814
1046.25    0.0174298496
1046.50    0.0172949179
1046.75    0.0171599861
1047.00    0.0170250544
1047.25    0.0168968567
1047.50    0.0167686590
1047.75    0.0166404612
1048.00    0.0165122635
1048.25    0.0163870623
1048.50    0.0162618611
1048.75    0.0161366599
1049.00    0.0160114587
1049.25    0.0158887239
1049.50    0.0157659891
1049.75    0.0156432542
1050.00    0.0155205194
1050.25    0.0154030717
1050.50    0.0152856241
1050.75    0.0151681764
1051.00    0.0150507287
1051.25    0.0149333290
1051.50    0.0148159293
1051.75    0.0146985296
1052.00    0.0145811299
1052.25    0.0144648512
1052.50    0.0143485724
1052.75    0.0142322937
1053.00    0.0141160149
1053.25    0.0140028295
1053.50    0.0138896440
1053.75    0.0137764585
1054.00    0.0136632730
1054.25    0.0135534323
1054.50    0.0134435916
1054.75    0.0133337508
1055.00    0.0132239101
1055.25    0.0131166352
1055.50    0.0130093603
1055.75    0.0129020853
1056.00    0.0127948104
1056.25    0.0126906412
1056.50    0.0125864719
1056.75    0.0124823027
1057.00    0.0123781334
1057.25    0.0122765258
1057.50    0.0121749181
1057.75    0.0120733104
1058.00    0.0119717028
1058.25    0.0118735580
1058.50    0.0117754132
1058.75    0.0116772684
1059.00    0.0115791236
1059.25    0.0114853595
1059.50    0.0113915954
1059.75    0.0112978313
1060.00    0.0112040672
1060.25    0.0111111613
1060.50    0.0110182554
1060.75    0.0109253495
1061.00    0.0108324436
1061.25    0.0107415787
1061.50    0.0106507137
1061.75    0.0105598487
1062.00    0.0104689838
1062.25    0.0103812884
1062.50    0.0102935930
1062.75    0.0102058976
1063.00    0.0101182023
1063.25    0.0100316192
1063.50    0.0099450362
1063.75    0.0098584531
1064.00    0.0097718700
1064.25    0.0096872503
1064.50    0.0096026306
1064.75    0.0095180109
1065.00    0.0094333912
1065.25    0.0093507239
1065.50    0.0092680566
1065.75    0.0091853893
1066.00    0.0091027220
1066.25    0.0090234458
1066.50    0.0089441696
1066.75    0.0088648934
1067.00    0.0087856173
1067.25    0.0087080986
1067.50    0.0086305799
1067.75    0.0085530613
1068.00    0.0084755426
1068.25    0.0083995723
1068.50    0.0083236020
1068.75    0.0082476317
1069.00    0.0081716614
1069.25    0.0080971187
1069.50    0.0080225759
1069.75    0.0079480332
1070.00    0.0078734905
1070.25    0.0077997919
1070.50    0.0077260934
1070.75    0.0076523948
1071.00    0.0075786963
1071.25    0.0075059894
1071.50    0.0074332824
1071.75    0.0073605755
1072.00    0.0072878685
1072.25    0.0072159325
1072.50    0.0071439965
1072.75    0.0070720605
1073.00    0.0070001245
1073.25    0.0069281141
1073.50    0.0068561037
1073.75    0.0067840933
1074.00    0.0067120829
1074.25    0.0066415698
1074.50    0.0065710567
1074.75    0.0065005435
1075.00    0.0064300304
1075.25    0.0063600115
1075.50    0.0062899926
1075.75    0.0062199736
1076.00    0.0061499547
1076.25    0.0060804712
1076.50    0.0060109877
1076.75    0.0059415042
1077.00    0.0058720207
1077.25    0.0058028614
1077.50    0.0057337021
1077.75    0.0056645429
1078.00    0.0055953836
1078.25    0.0055264555
1078.50    0.0054575273
1078.75    0.0053885992
1079.00    0.0053196711
1079.25    0.0052509440
1079.50    0.0051822169
1079.75    0.0051134899
1080.00    0.0050447628
1080.25    0.0049757932
1080.50    0.0049068236
1080.75    0.0048378540
1081.00    0.0047688845
1081.25    0.0046999321
1081.50    0.0046309798
1081.75    0.0045620274
1082.00    0.0044930751
1082.25    0.0044242945
1082.50    0.0043555139
1082.75    0.0042867333
1083.00    0.0042179528
1083.25    0.0041491194
1083.50    0.0040802861
1083.75    0.0040114528
1084.00    0.0039426195
1084.25    0.0038745849
1084.50    0.0038065503
1084.75    0.0037385157
1085.00    0.0036704811
1085.25    0.0036025500
1085.50    0.0035346189
1085.75    0.0034666878
1086.00    0.0033987566
1086.25    0.0033310582
1086.50    0.0032633597
1086.75    0.0031956612
1087.00    0.0031279628
1087.25    0.0030607229
1087.50    0.0029934830
1087.75    0.0029262432
1088.00    0.0028590033
1088.25    0.0027916509
1088.50    0.0027242984
1088.75    0.0026569459
1089.00    0.0025895934
1089.25    0.0025223378
1089.50    0.0024550821
1089.75    0.0023878265
1090.00    0.0023205708
1090.25    0.0022537037
1090.50    0.0021868366
1090.75    0.0021199694
1091.00    0.0020531023
1091.25    0.0019860811
1091.50    0.0019190598
1091.75    0.0018520385
1092.00    0.0017850172
1092.25    0.0017181849
1092.50    0.0016513525
1092.75    0.0015845201
1093.00    0.0015176877
1093.25    0.0014509067
1093.50    0.0013841256
1093.75    0.0013173446
1094.00    0.0012505635
1094.25    0.0011840414
1094.50    0.0011175194
1094.75    0.0010509973
1095.00    0.0009844752
1095.25    0.0009181632
1095.50    0.0008518512
1095.75    0.0007855392
1096.00    0.0007192272
1096.25    0.0006528225
1096.50    0.0005864178
1096.75    0.0005200131
1097.00    0.0004536084
1097.25    0.0003870897
1097.50    0.0003205709
1097.75    0.0002540522
1098.00    0.0001875335
1098.25    0.0001208321
1098.50    0.0000541307
1098.75    0.0000000000
1099.00    0.0000000000
1099.25    0.0000000000
1099.50    0.0000000000
1099.75    0.0000000000
1100.00    0.0000000000
