# file: i_LSST.Euclid.pb
# system: AB
# comment: SPV2 values from SPV02 branch of the Euclid MDB
# comment: table LSST.i-TotalTransmissionsAsOfMarch2017.dat
# filter: i_LSST
# instrument: Euclid
# description: Full system QE
# url: http://euclid.esac.esa.int/epdb/db/SPV02/
# xref: 7546.0 Angstrom
# xtype: wavelength
# ytype: qe
# reference: Euclid Consortium Mission Performance Document, V 2.0
# xunit: Angstrom
6760.0    0.000
6761.0    0.001
6762.0    0.002
6763.0    0.003
6764.0    0.004
6765.0    0.004
6766.0    0.005
6767.0    0.006
6768.0    0.007
6769.0    0.008
6770.0    0.009
6771.0    0.010
6772.0    0.011
6773.0    0.012
6774.0    0.012
6775.0    0.013
6776.0    0.014
6777.0    0.015
6778.0    0.016
6779.0    0.017
6780.0    0.018
6781.0    0.019
6782.0    0.020
6783.0    0.020
6784.0    0.021
6785.0    0.022
6786.0    0.023
6787.0    0.024
6788.0    0.025
6789.0    0.026
6790.0    0.027
6791.0    0.028
6792.0    0.028
6793.0    0.029
6794.0    0.030
6795.0    0.031
6796.0    0.032
6797.0    0.033
6798.0    0.034
6799.0    0.035
6800.0    0.036
6801.0    0.036
6802.0    0.037
6803.0    0.038
6804.0    0.039
6805.0    0.040
6806.0    0.041
6807.0    0.042
6808.0    0.043
6809.0    0.044
6810.0    0.044
6811.0    0.046
6812.0    0.048
6813.0    0.050
6814.0    0.052
6815.0    0.053
6816.0    0.055
6817.0    0.057
6818.0    0.059
6819.0    0.060
6820.0    0.062
6821.0    0.064
6822.0    0.066
6823.0    0.067
6824.0    0.069
6825.0    0.071
6826.0    0.073
6827.0    0.075
6828.0    0.076
6829.0    0.078
6830.0    0.080
6831.0    0.082
6832.0    0.083
6833.0    0.085
6834.0    0.087
6835.0    0.089
6836.0    0.090
6837.0    0.092
6838.0    0.094
6839.0    0.096
6840.0    0.097
6841.0    0.099
6842.0    0.101
6843.0    0.103
6844.0    0.104
6845.0    0.106
6846.0    0.108
6847.0    0.110
6848.0    0.111
6849.0    0.113
6850.0    0.115
6851.0    0.117
6852.0    0.118
6853.0    0.120
6854.0    0.122
6855.0    0.124
6856.0    0.125
6857.0    0.127
6858.0    0.129
6859.0    0.130
6860.0    0.132
6861.0    0.132
6862.0    0.133
6863.0    0.133
6864.0    0.133
6865.0    0.134
6866.0    0.132
6867.0    0.130
6868.0    0.128
6869.0    0.126
6870.0    0.124
6871.0    0.124
6872.0    0.123
6873.0    0.123
6874.0    0.123
6875.0    0.122
6876.0    0.126
6877.0    0.129
6878.0    0.133
6879.0    0.136
6880.0    0.140
6881.0    0.143
6882.0    0.146
6883.0    0.150
6884.0    0.153
6885.0    0.157
6886.0    0.158
6887.0    0.159
6888.0    0.160
6889.0    0.161
6890.0    0.162
6891.0    0.163
6892.0    0.165
6893.0    0.166
6894.0    0.168
6895.0    0.169
6896.0    0.172
6897.0    0.174
6898.0    0.176
6899.0    0.179
6900.0    0.181
6901.0    0.183
6902.0    0.185
6903.0    0.188
6904.0    0.190
6905.0    0.192
6906.0    0.195
6907.0    0.197
6908.0    0.199
6909.0    0.202
6910.0    0.204
6911.0    0.206
6912.0    0.209
6913.0    0.211
6914.0    0.213
6915.0    0.215
6916.0    0.218
6917.0    0.220
6918.0    0.222
6919.0    0.224
6920.0    0.227
6921.0    0.229
6922.0    0.231
6923.0    0.233
6924.0    0.235
6925.0    0.238
6926.0    0.240
6927.0    0.242
6928.0    0.244
6929.0    0.246
6930.0    0.248
6931.0    0.250
6932.0    0.252
6933.0    0.254
6934.0    0.256
6935.0    0.258
6936.0    0.259
6937.0    0.261
6938.0    0.263
6939.0    0.265
6940.0    0.266
6941.0    0.268
6942.0    0.270
6943.0    0.272
6944.0    0.273
6945.0    0.275
6946.0    0.277
6947.0    0.279
6948.0    0.281
6949.0    0.283
6950.0    0.285
6951.0    0.287
6952.0    0.289
6953.0    0.291
6954.0    0.292
6955.0    0.294
6956.0    0.296
6957.0    0.298
6958.0    0.299
6959.0    0.301
6960.0    0.303
6961.0    0.305
6962.0    0.307
6963.0    0.309
6964.0    0.311
6965.0    0.313
6966.0    0.315
6967.0    0.318
6968.0    0.320
6969.0    0.322
6970.0    0.324
6971.0    0.326
6972.0    0.328
6973.0    0.330
6974.0    0.331
6975.0    0.333
6976.0    0.335
6977.0    0.336
6978.0    0.338
6979.0    0.340
6980.0    0.341
6981.0    0.343
6982.0    0.345
6983.0    0.346
6984.0    0.348
6985.0    0.349
6986.0    0.351
6987.0    0.352
6988.0    0.353
6989.0    0.355
6990.0    0.356
6991.0    0.358
6992.0    0.359
6993.0    0.361
6994.0    0.363
6995.0    0.365
6996.0    0.366
6997.0    0.368
6998.0    0.370
6999.0    0.372
7000.0    0.374
7001.0    0.376
7002.0    0.377
7003.0    0.379
7004.0    0.381
7005.0    0.383
7006.0    0.385
7007.0    0.386
7008.0    0.388
7009.0    0.390
7010.0    0.392
7011.0    0.393
7012.0    0.395
7013.0    0.397
7014.0    0.398
7015.0    0.400
7016.0    0.402
7017.0    0.404
7018.0    0.405
7019.0    0.406
7020.0    0.407
7021.0    0.408
7022.0    0.409
7023.0    0.410
7024.0    0.410
7025.0    0.411
7026.0    0.412
7027.0    0.413
7028.0    0.414
7029.0    0.415
7030.0    0.416
7031.0    0.418
7032.0    0.419
7033.0    0.420
7034.0    0.422
7035.0    0.423
7036.0    0.424
7037.0    0.425
7038.0    0.426
7039.0    0.426
7040.0    0.427
7041.0    0.428
7042.0    0.429
7043.0    0.430
7044.0    0.431
7045.0    0.432
7046.0    0.432
7047.0    0.433
7048.0    0.434
7049.0    0.435
7050.0    0.436
7051.0    0.437
7052.0    0.438
7053.0    0.438
7054.0    0.438
7055.0    0.438
7056.0    0.438
7057.0    0.438
7058.0    0.439
7059.0    0.439
7060.0    0.439
7061.0    0.439
7062.0    0.439
7063.0    0.439
7064.0    0.439
7065.0    0.439
7066.0    0.439
7067.0    0.439
7068.0    0.439
7069.0    0.439
7070.0    0.440
7071.0    0.440
7072.0    0.440
7073.0    0.440
7074.0    0.440
7075.0    0.440
7076.0    0.440
7077.0    0.440
7078.0    0.440
7079.0    0.440
7080.0    0.440
7081.0    0.440
7082.0    0.440
7083.0    0.440
7084.0    0.440
7085.0    0.440
7086.0    0.440
7087.0    0.440
7088.0    0.440
7089.0    0.440
7090.0    0.441
7091.0    0.441
7092.0    0.441
7093.0    0.441
7094.0    0.441
7095.0    0.441
7096.0    0.441
7097.0    0.441
7098.0    0.441
7099.0    0.441
7100.0    0.441
7101.0    0.441
7102.0    0.441
7103.0    0.441
7104.0    0.441
7105.0    0.441
7106.0    0.441
7107.0    0.441
7108.0    0.441
7109.0    0.441
7110.0    0.441
7111.0    0.441
7112.0    0.441
7113.0    0.442
7114.0    0.442
7115.0    0.442
7116.0    0.442
7117.0    0.442
7118.0    0.442
7119.0    0.442
7120.0    0.442
7121.0    0.442
7122.0    0.442
7123.0    0.442
7124.0    0.442
7125.0    0.442
7126.0    0.442
7127.0    0.442
7128.0    0.442
7129.0    0.442
7130.0    0.442
7131.0    0.442
7132.0    0.442
7133.0    0.442
7134.0    0.442
7135.0    0.442
7136.0    0.442
7137.0    0.442
7138.0    0.442
7139.0    0.442
7140.0    0.442
7141.0    0.442
7142.0    0.442
7143.0    0.442
7144.0    0.442
7145.0    0.442
7146.0    0.441
7147.0    0.441
7148.0    0.441
7149.0    0.441
7150.0    0.441
7151.0    0.441
7152.0    0.441
7153.0    0.441
7154.0    0.441
7155.0    0.441
7156.0    0.441
7157.0    0.441
7158.0    0.440
7159.0    0.440
7160.0    0.440
7161.0    0.439
7162.0    0.438
7163.0    0.438
7164.0    0.437
7165.0    0.436
7166.0    0.434
7167.0    0.432
7168.0    0.430
7169.0    0.428
7170.0    0.426
7171.0    0.425
7172.0    0.423
7173.0    0.421
7174.0    0.420
7175.0    0.418
7176.0    0.417
7177.0    0.417
7178.0    0.416
7179.0    0.415
7180.0    0.414
7181.0    0.413
7182.0    0.412
7183.0    0.410
7184.0    0.409
7185.0    0.408
7186.0    0.407
7187.0    0.406
7188.0    0.405
7189.0    0.404
7190.0    0.403
7191.0    0.404
7192.0    0.404
7193.0    0.404
7194.0    0.404
7195.0    0.404
7196.0    0.404
7197.0    0.405
7198.0    0.405
7199.0    0.405
7200.0    0.405
7201.0    0.406
7202.0    0.407
7203.0    0.408
7204.0    0.409
7205.0    0.410
7206.0    0.412
7207.0    0.415
7208.0    0.417
7209.0    0.419
7210.0    0.422
7211.0    0.424
7212.0    0.426
7213.0    0.428
7214.0    0.431
7215.0    0.433
7216.0    0.434
7217.0    0.434
7218.0    0.435
7219.0    0.436
7220.0    0.436
7221.0    0.436
7222.0    0.436
7223.0    0.436
7224.0    0.436
7225.0    0.436
7226.0    0.434
7227.0    0.433
7228.0    0.431
7229.0    0.430
7230.0    0.428
7231.0    0.426
7232.0    0.424
7233.0    0.422
7234.0    0.419
7235.0    0.417
7236.0    0.417
7237.0    0.416
7238.0    0.416
7239.0    0.416
7240.0    0.415
7241.0    0.416
7242.0    0.416
7243.0    0.416
7244.0    0.416
7245.0    0.417
7246.0    0.417
7247.0    0.417
7248.0    0.418
7249.0    0.418
7250.0    0.419
7251.0    0.419
7252.0    0.419
7253.0    0.420
7254.0    0.420
7255.0    0.420
7256.0    0.421
7257.0    0.422
7258.0    0.423
7259.0    0.423
7260.0    0.424
7261.0    0.424
7262.0    0.424
7263.0    0.424
7264.0    0.424
7265.0    0.424
7266.0    0.424
7267.0    0.424
7268.0    0.424
7269.0    0.424
7270.0    0.424
7271.0    0.423
7272.0    0.422
7273.0    0.422
7274.0    0.421
7275.0    0.420
7276.0    0.420
7277.0    0.420
7278.0    0.420
7279.0    0.420
7280.0    0.420
7281.0    0.421
7282.0    0.423
7283.0    0.424
7284.0    0.426
7285.0    0.427
7286.0    0.427
7287.0    0.427
7288.0    0.427
7289.0    0.426
7290.0    0.426
7291.0    0.427
7292.0    0.427
7293.0    0.427
7294.0    0.428
7295.0    0.428
7296.0    0.429
7297.0    0.429
7298.0    0.430
7299.0    0.431
7300.0    0.431
7301.0    0.431
7302.0    0.431
7303.0    0.431
7304.0    0.430
7305.0    0.430
7306.0    0.430
7307.0    0.430
7308.0    0.430
7309.0    0.430
7310.0    0.430
7311.0    0.430
7312.0    0.430
7313.0    0.431
7314.0    0.431
7315.0    0.432
7316.0    0.432
7317.0    0.433
7318.0    0.434
7319.0    0.434
7320.0    0.435
7321.0    0.436
7322.0    0.437
7323.0    0.438
7324.0    0.439
7325.0    0.440
7326.0    0.441
7327.0    0.441
7328.0    0.442
7329.0    0.442
7330.0    0.443
7331.0    0.443
7332.0    0.443
7333.0    0.443
7334.0    0.443
7335.0    0.443
7336.0    0.443
7337.0    0.443
7338.0    0.443
7339.0    0.444
7340.0    0.444
7341.0    0.444
7342.0    0.444
7343.0    0.445
7344.0    0.445
7345.0    0.445
7346.0    0.445
7347.0    0.445
7348.0    0.445
7349.0    0.445
7350.0    0.445
7351.0    0.445
7352.0    0.445
7353.0    0.445
7354.0    0.445
7355.0    0.445
7356.0    0.445
7357.0    0.445
7358.0    0.445
7359.0    0.445
7360.0    0.445
7361.0    0.445
7362.0    0.444
7363.0    0.444
7364.0    0.444
7365.0    0.444
7366.0    0.444
7367.0    0.445
7368.0    0.445
7369.0    0.445
7370.0    0.445
7371.0    0.445
7372.0    0.446
7373.0    0.446
7374.0    0.446
7375.0    0.446
7376.0    0.447
7377.0    0.447
7378.0    0.447
7379.0    0.447
7380.0    0.447
7381.0    0.447
7382.0    0.447
7383.0    0.447
7384.0    0.447
7385.0    0.447
7386.0    0.447
7387.0    0.447
7388.0    0.448
7389.0    0.448
7390.0    0.448
7391.0    0.448
7392.0    0.448
7393.0    0.448
7394.0    0.448
7395.0    0.448
7396.0    0.448
7397.0    0.448
7398.0    0.448
7399.0    0.448
7400.0    0.449
7401.0    0.449
7402.0    0.449
7403.0    0.449
7404.0    0.449
7405.0    0.449
7406.0    0.449
7407.0    0.449
7408.0    0.449
7409.0    0.449
7410.0    0.450
7411.0    0.450
7412.0    0.450
7413.0    0.450
7414.0    0.450
7415.0    0.450
7416.0    0.450
7417.0    0.450
7418.0    0.450
7419.0    0.450
7420.0    0.450
7421.0    0.450
7422.0    0.450
7423.0    0.450
7424.0    0.450
7425.0    0.450
7426.0    0.450
7427.0    0.450
7428.0    0.450
7429.0    0.450
7430.0    0.450
7431.0    0.450
7432.0    0.450
7433.0    0.450
7434.0    0.450
7435.0    0.450
7436.0    0.451
7437.0    0.451
7438.0    0.451
7439.0    0.451
7440.0    0.451
7441.0    0.451
7442.0    0.451
7443.0    0.451
7444.0    0.451
7445.0    0.451
7446.0    0.451
7447.0    0.451
7448.0    0.451
7449.0    0.451
7450.0    0.451
7451.0    0.451
7452.0    0.451
7453.0    0.451
7454.0    0.451
7455.0    0.451
7456.0    0.451
7457.0    0.451
7458.0    0.451
7459.0    0.451
7460.0    0.451
7461.0    0.451
7462.0    0.451
7463.0    0.451
7464.0    0.451
7465.0    0.450
7466.0    0.450
7467.0    0.450
7468.0    0.450
7469.0    0.450
7470.0    0.450
7471.0    0.450
7472.0    0.451
7473.0    0.451
7474.0    0.451
7475.0    0.451
7476.0    0.451
7477.0    0.451
7478.0    0.451
7479.0    0.451
7480.0    0.451
7481.0    0.451
7482.0    0.451
7483.0    0.451
7484.0    0.451
7485.0    0.451
7486.0    0.451
7487.0    0.451
7488.0    0.451
7489.0    0.451
7490.0    0.451
7491.0    0.451
7492.0    0.451
7493.0    0.451
7494.0    0.451
7495.0    0.451
7496.0    0.451
7497.0    0.451
7498.0    0.451
7499.0    0.451
7500.0    0.451
7501.0    0.451
7502.0    0.451
7503.0    0.451
7504.0    0.451
7505.0    0.451
7506.0    0.451
7507.0    0.451
7508.0    0.451
7509.0    0.451
7510.0    0.452
7511.0    0.452
7512.0    0.452
7513.0    0.452
7514.0    0.452
7515.0    0.452
7516.0    0.452
7517.0    0.452
7518.0    0.452
7519.0    0.452
7520.0    0.452
7521.0    0.452
7522.0    0.452
7523.0    0.451
7524.0    0.451
7525.0    0.451
7526.0    0.451
7527.0    0.451
7528.0    0.451
7529.0    0.451
7530.0    0.451
7531.0    0.451
7532.0    0.452
7533.0    0.452
7534.0    0.452
7535.0    0.452
7536.0    0.452
7537.0    0.452
7538.0    0.452
7539.0    0.452
7540.0    0.452
7541.0    0.452
7542.0    0.452
7543.0    0.452
7544.0    0.452
7545.0    0.451
7546.0    0.451
7547.0    0.451
7548.0    0.451
7549.0    0.451
7550.0    0.451
7551.0    0.451
7552.0    0.451
7553.0    0.451
7554.0    0.451
7555.0    0.451
7556.0    0.451
7557.0    0.451
7558.0    0.451
7559.0    0.451
7560.0    0.451
7561.0    0.451
7562.0    0.451
7563.0    0.451
7564.0    0.451
7565.0    0.451
7566.0    0.451
7567.0    0.451
7568.0    0.452
7569.0    0.452
7570.0    0.452
7571.0    0.452
7572.0    0.452
7573.0    0.452
7574.0    0.452
7575.0    0.452
7576.0    0.452
7577.0    0.452
7578.0    0.452
7579.0    0.452
7580.0    0.452
7581.0    0.451
7582.0    0.451
7583.0    0.451
7584.0    0.450
7585.0    0.450
7586.0    0.446
7587.0    0.442
7588.0    0.438
7589.0    0.434
7590.0    0.430
7591.0    0.413
7592.0    0.396
7593.0    0.379
7594.0    0.363
7595.0    0.346
7596.0    0.322
7597.0    0.297
7598.0    0.273
7599.0    0.248
7600.0    0.224
7601.0    0.211
7602.0    0.198
7603.0    0.185
7604.0    0.172
7605.0    0.159
7606.0    0.160
7607.0    0.162
7608.0    0.163
7609.0    0.165
7610.0    0.166
7611.0    0.179
7612.0    0.192
7613.0    0.205
7614.0    0.219
7615.0    0.232
7616.0    0.246
7617.0    0.259
7618.0    0.273
7619.0    0.287
7620.0    0.301
7621.0    0.299
7622.0    0.297
7623.0    0.295
7624.0    0.293
7625.0    0.291
7626.0    0.284
7627.0    0.276
7628.0    0.269
7629.0    0.261
7630.0    0.254
7631.0    0.254
7632.0    0.254
7633.0    0.254
7634.0    0.254
7635.0    0.254
7636.0    0.258
7637.0    0.263
7638.0    0.267
7639.0    0.271
7640.0    0.275
7641.0    0.280
7642.0    0.285
7643.0    0.290
7644.0    0.295
7645.0    0.300
7646.0    0.306
7647.0    0.312
7648.0    0.318
7649.0    0.324
7650.0    0.329
7651.0    0.335
7652.0    0.340
7653.0    0.345
7654.0    0.351
7655.0    0.356
7656.0    0.360
7657.0    0.364
7658.0    0.368
7659.0    0.373
7660.0    0.377
7661.0    0.380
7662.0    0.384
7663.0    0.387
7664.0    0.391
7665.0    0.395
7666.0    0.398
7667.0    0.402
7668.0    0.406
7669.0    0.409
7670.0    0.413
7671.0    0.416
7672.0    0.418
7673.0    0.421
7674.0    0.423
7675.0    0.426
7676.0    0.427
7677.0    0.428
7678.0    0.430
7679.0    0.431
7680.0    0.432
7681.0    0.433
7682.0    0.434
7683.0    0.435
7684.0    0.436
7685.0    0.437
7686.0    0.438
7687.0    0.438
7688.0    0.439
7689.0    0.440
7690.0    0.440
7691.0    0.441
7692.0    0.441
7693.0    0.442
7694.0    0.442
7695.0    0.443
7696.0    0.444
7697.0    0.444
7698.0    0.445
7699.0    0.446
7700.0    0.446
7701.0    0.447
7702.0    0.447
7703.0    0.448
7704.0    0.448
7705.0    0.449
7706.0    0.449
7707.0    0.449
7708.0    0.449
7709.0    0.449
7710.0    0.450
7711.0    0.450
7712.0    0.450
7713.0    0.450
7714.0    0.450
7715.0    0.450
7716.0    0.450
7717.0    0.450
7718.0    0.450
7719.0    0.450
7720.0    0.450
7721.0    0.450
7722.0    0.450
7723.0    0.450
7724.0    0.450
7725.0    0.450
7726.0    0.450
7727.0    0.450
7728.0    0.450
7729.0    0.450
7730.0    0.450
7731.0    0.450
7732.0    0.451
7733.0    0.451
7734.0    0.451
7735.0    0.451
7736.0    0.451
7737.0    0.451
7738.0    0.451
7739.0    0.451
7740.0    0.451
7741.0    0.451
7742.0    0.451
7743.0    0.451
7744.0    0.451
7745.0    0.451
7746.0    0.451
7747.0    0.451
7748.0    0.451
7749.0    0.451
7750.0    0.451
7751.0    0.451
7752.0    0.451
7753.0    0.451
7754.0    0.451
7755.0    0.451
7756.0    0.451
7757.0    0.450
7758.0    0.450
7759.0    0.450
7760.0    0.450
7761.0    0.450
7762.0    0.450
7763.0    0.450
7764.0    0.450
7765.0    0.450
7766.0    0.450
7767.0    0.450
7768.0    0.450
7769.0    0.450
7770.0    0.450
7771.0    0.450
7772.0    0.450
7773.0    0.450
7774.0    0.450
7775.0    0.450
7776.0    0.450
7777.0    0.450
7778.0    0.450
7779.0    0.450
7780.0    0.450
7781.0    0.450
7782.0    0.450
7783.0    0.450
7784.0    0.450
7785.0    0.450
7786.0    0.450
7787.0    0.450
7788.0    0.450
7789.0    0.450
7790.0    0.450
7791.0    0.450
7792.0    0.450
7793.0    0.450
7794.0    0.450
7795.0    0.450
7796.0    0.450
7797.0    0.450
7798.0    0.450
7799.0    0.450
7800.0    0.450
7801.0    0.450
7802.0    0.450
7803.0    0.450
7804.0    0.450
7805.0    0.450
7806.0    0.450
7807.0    0.449
7808.0    0.449
7809.0    0.449
7810.0    0.449
7811.0    0.449
7812.0    0.449
7813.0    0.449
7814.0    0.449
7815.0    0.449
7816.0    0.449
7817.0    0.449
7818.0    0.449
7819.0    0.449
7820.0    0.449
7821.0    0.449
7822.0    0.449
7823.0    0.449
7824.0    0.449
7825.0    0.449
7826.0    0.449
7827.0    0.449
7828.0    0.449
7829.0    0.449
7830.0    0.449
7831.0    0.449
7832.0    0.449
7833.0    0.449
7834.0    0.449
7835.0    0.449
7836.0    0.449
7837.0    0.449
7838.0    0.449
7839.0    0.449
7840.0    0.449
7841.0    0.449
7842.0    0.449
7843.0    0.449
7844.0    0.449
7845.0    0.448
7846.0    0.448
7847.0    0.448
7848.0    0.448
7849.0    0.448
7850.0    0.448
7851.0    0.448
7852.0    0.448
7853.0    0.448
7854.0    0.448
7855.0    0.448
7856.0    0.448
7857.0    0.448
7858.0    0.448
7859.0    0.448
7860.0    0.448
7861.0    0.448
7862.0    0.448
7863.0    0.448
7864.0    0.448
7865.0    0.448
7866.0    0.448
7867.0    0.448
7868.0    0.448
7869.0    0.447
7870.0    0.447
7871.0    0.447
7872.0    0.447
7873.0    0.447
7874.0    0.447
7875.0    0.447
7876.0    0.447
7877.0    0.447
7878.0    0.447
7879.0    0.447
7880.0    0.447
7881.0    0.447
7882.0    0.447
7883.0    0.446
7884.0    0.446
7885.0    0.446
7886.0    0.446
7887.0    0.446
7888.0    0.445
7889.0    0.445
7890.0    0.445
7891.0    0.445
7892.0    0.445
7893.0    0.444
7894.0    0.444
7895.0    0.444
7896.0    0.444
7897.0    0.444
7898.0    0.444
7899.0    0.444
7900.0    0.444
7901.0    0.444
7902.0    0.444
7903.0    0.443
7904.0    0.443
7905.0    0.443
7906.0    0.443
7907.0    0.443
7908.0    0.443
7909.0    0.443
7910.0    0.443
7911.0    0.443
7912.0    0.443
7913.0    0.444
7914.0    0.444
7915.0    0.444
7916.0    0.444
7917.0    0.444
7918.0    0.444
7919.0    0.444
7920.0    0.444
7921.0    0.444
7922.0    0.444
7923.0    0.444
7924.0    0.443
7925.0    0.443
7926.0    0.443
7927.0    0.443
7928.0    0.443
7929.0    0.443
7930.0    0.443
7931.0    0.444
7932.0    0.444
7933.0    0.444
7934.0    0.444
7935.0    0.445
7936.0    0.445
7937.0    0.445
7938.0    0.446
7939.0    0.446
7940.0    0.446
7941.0    0.446
7942.0    0.446
7943.0    0.446
7944.0    0.446
7945.0    0.446
7946.0    0.446
7947.0    0.446
7948.0    0.445
7949.0    0.445
7950.0    0.445
7951.0    0.445
7952.0    0.445
7953.0    0.445
7954.0    0.444
7955.0    0.444
7956.0    0.444
7957.0    0.443
7958.0    0.443
7959.0    0.442
7960.0    0.442
7961.0    0.441
7962.0    0.441
7963.0    0.441
7964.0    0.441
7965.0    0.440
7966.0    0.441
7967.0    0.441
7968.0    0.441
7969.0    0.442
7970.0    0.442
7971.0    0.442
7972.0    0.442
7973.0    0.443
7974.0    0.443
7975.0    0.443
7976.0    0.443
7977.0    0.443
7978.0    0.443
7979.0    0.443
7980.0    0.443
7981.0    0.443
7982.0    0.443
7983.0    0.443
7984.0    0.443
7985.0    0.443
7986.0    0.443
7987.0    0.443
7988.0    0.443
7989.0    0.443
7990.0    0.443
7991.0    0.443
7992.0    0.443
7993.0    0.443
7994.0    0.443
7995.0    0.443
7996.0    0.443
7997.0    0.443
7998.0    0.442
7999.0    0.442
8000.0    0.442
8001.0    0.442
8002.0    0.442
8003.0    0.441
8004.0    0.441
8005.0    0.441
8006.0    0.441
8007.0    0.441
8008.0    0.441
8009.0    0.441
8010.0    0.441
8011.0    0.441
8012.0    0.441
8013.0    0.441
8014.0    0.441
8015.0    0.441
8016.0    0.441
8017.0    0.441
8018.0    0.441
8019.0    0.441
8020.0    0.441
8021.0    0.441
8022.0    0.441
8023.0    0.441
8024.0    0.441
8025.0    0.441
8026.0    0.441
8027.0    0.441
8028.0    0.441
8029.0    0.441
8030.0    0.441
8031.0    0.441
8032.0    0.441
8033.0    0.441
8034.0    0.441
8035.0    0.441
8036.0    0.441
8037.0    0.441
8038.0    0.441
8039.0    0.440
8040.0    0.439
8041.0    0.438
8042.0    0.437
8043.0    0.436
8044.0    0.435
8045.0    0.435
8046.0    0.434
8047.0    0.433
8048.0    0.432
8049.0    0.432
8050.0    0.431
8051.0    0.430
8052.0    0.429
8053.0    0.429
8054.0    0.428
8055.0    0.427
8056.0    0.426
8057.0    0.425
8058.0    0.425
8059.0    0.424
8060.0    0.423
8061.0    0.422
8062.0    0.421
8063.0    0.420
8064.0    0.419
8065.0    0.418
8066.0    0.417
8067.0    0.416
8068.0    0.416
8069.0    0.415
8070.0    0.414
8071.0    0.413
8072.0    0.412
8073.0    0.410
8074.0    0.409
8075.0    0.407
8076.0    0.405
8077.0    0.403
8078.0    0.401
8079.0    0.400
8080.0    0.398
8081.0    0.396
8082.0    0.394
8083.0    0.392
8084.0    0.390
8085.0    0.388
8086.0    0.387
8087.0    0.385
8088.0    0.383
8089.0    0.381
8090.0    0.379
8091.0    0.377
8092.0    0.375
8093.0    0.374
8094.0    0.372
8095.0    0.370
8096.0    0.368
8097.0    0.366
8098.0    0.365
8099.0    0.363
8100.0    0.361
8101.0    0.359
8102.0    0.358
8103.0    0.356
8104.0    0.354
8105.0    0.352
8106.0    0.351
8107.0    0.349
8108.0    0.347
8109.0    0.345
8110.0    0.343
8111.0    0.341
8112.0    0.339
8113.0    0.337
8114.0    0.335
8115.0    0.333
8116.0    0.331
8117.0    0.329
8118.0    0.327
8119.0    0.325
8120.0    0.323
8121.0    0.322
8122.0    0.320
8123.0    0.318
8124.0    0.316
8125.0    0.314
8126.0    0.312
8127.0    0.310
8128.0    0.308
8129.0    0.305
8130.0    0.303
8131.0    0.300
8132.0    0.298
8133.0    0.295
8134.0    0.292
8135.0    0.290
8136.0    0.288
8137.0    0.286
8138.0    0.284
8139.0    0.281
8140.0    0.279
8141.0    0.278
8142.0    0.276
8143.0    0.274
8144.0    0.272
8145.0    0.270
8146.0    0.268
8147.0    0.266
8148.0    0.263
8149.0    0.261
8150.0    0.259
8151.0    0.257
8152.0    0.254
8153.0    0.252
8154.0    0.250
8155.0    0.248
8156.0    0.245
8157.0    0.243
8158.0    0.241
8159.0    0.239
8160.0    0.237
8161.0    0.235
8162.0    0.233
8163.0    0.231
8164.0    0.229
8165.0    0.227
8166.0    0.226
8167.0    0.225
8168.0    0.224
8169.0    0.223
8170.0    0.222
8171.0    0.220
8172.0    0.219
8173.0    0.217
8174.0    0.216
8175.0    0.214
8176.0    0.211
8177.0    0.209
8178.0    0.206
8179.0    0.204
8180.0    0.202
8181.0    0.201
8182.0    0.200
8183.0    0.199
8184.0    0.198
8185.0    0.197
8186.0    0.195
8187.0    0.194
8188.0    0.193
8189.0    0.192
8190.0    0.191
8191.0    0.189
8192.0    0.187
8193.0    0.186
8194.0    0.184
8195.0    0.182
8196.0    0.181
8197.0    0.179
8198.0    0.177
8199.0    0.176
8200.0    0.174
8201.0    0.173
8202.0    0.173
8203.0    0.172
8204.0    0.171
8205.0    0.170
8206.0    0.169
8207.0    0.168
8208.0    0.167
8209.0    0.166
8210.0    0.165
8211.0    0.163
8212.0    0.161
8213.0    0.159
8214.0    0.158
8215.0    0.156
8216.0    0.154
8217.0    0.152
8218.0    0.150
8219.0    0.147
8220.0    0.145
8221.0    0.143
8222.0    0.140
8223.0    0.137
8224.0    0.134
8225.0    0.131
8226.0    0.128
8227.0    0.125
8228.0    0.122
8229.0    0.119
8230.0    0.116
8231.0    0.115
8232.0    0.114
8233.0    0.113
8234.0    0.112
8235.0    0.111
8236.0    0.111
8237.0    0.110
8238.0    0.110
8239.0    0.110
8240.0    0.109
8241.0    0.108
8242.0    0.107
8243.0    0.105
8244.0    0.104
8245.0    0.103
8246.0    0.101
8247.0    0.100
8248.0    0.098
8249.0    0.096
8250.0    0.095
8251.0    0.093
8252.0    0.091
8253.0    0.089
8254.0    0.088
8255.0    0.086
8256.0    0.084
8257.0    0.082
8258.0    0.080
8259.0    0.079
8260.0    0.077
8261.0    0.075
8262.0    0.074
8263.0    0.072
8264.0    0.071
8265.0    0.069
8266.0    0.067
8267.0    0.066
8268.0    0.064
8269.0    0.062
8270.0    0.061
8271.0    0.059
8272.0    0.057
8273.0    0.055
8274.0    0.053
8275.0    0.051
8276.0    0.049
8277.0    0.047
8278.0    0.045
8279.0    0.043
8280.0    0.042
8281.0    0.041
8282.0    0.040
8283.0    0.039
8284.0    0.039
8285.0    0.038
8286.0    0.037
8287.0    0.036
8288.0    0.035
8289.0    0.035
8290.0    0.034
8291.0    0.033
8292.0    0.032
8293.0    0.031
8294.0    0.030
8295.0    0.030
8296.0    0.029
8297.0    0.028
8298.0    0.027
8299.0    0.026
8300.0    0.026
8301.0    0.025
8302.0    0.024
8303.0    0.023
8304.0    0.022
8305.0    0.021
8306.0    0.021
8307.0    0.020
8308.0    0.019
8309.0    0.018
8310.0    0.017
8311.0    0.016
8312.0    0.016
8313.0    0.015
8314.0    0.014
8315.0    0.013
8316.0    0.012
8317.0    0.011
8318.0    0.010
8319.0    0.009
8320.0    0.009
8321.0    0.008
8322.0    0.007
8323.0    0.006
8324.0    0.005
8325.0    0.004
8326.0    0.003
8327.0    0.003
8328.0    0.002
8329.0    0.001
8330.0    0.000
