# file: r_DECam.Euclid.pb
# instrument: Euclid
# system: AB
# xtype: wavelength
# ytype: qe
# description: Full system QE
# comment: SPV2 values from SPV02 branch of the Euclid MDB
# comment: MDB file: EUC_MDB_MISSIONCONFIGURATION-SPV02_2018-06-16T140000.00Z_01.01.xml
# comment: MDB variable: ExternalData.BLA.BlancoDECamTotalTrans.r
# url: http://euclid.esac.esa.int/epdb/db/SPV02/
# reference: Euclid Consortium Mission Performance Document, V 2.0
# xref: 644.0 nm
# filter: r_DECam
# xunit: nm
530.0    0.000
531.0    0.001
532.0    0.001
533.0    0.001
534.0    0.001
535.0    0.001
536.0    0.001
537.0    0.001
538.0    0.001
539.0    0.001
540.0    0.001
541.0    0.001
542.0    0.002
543.0    0.002
544.0    0.002
545.0    0.002
546.0    0.003
547.0    0.003
548.0    0.003
549.0    0.004
550.0    0.004
551.0    0.006
552.0    0.005
553.0    0.006
554.0    0.007
555.0    0.007
556.0    0.008
557.0    0.010
558.0    0.011
559.0    0.019
560.0    0.028
561.0    0.026
562.0    0.024
563.0    0.040
564.0    0.057
565.0    0.111
566.0    0.165
567.0    0.248
568.0    0.330
569.0    0.368
570.0    0.407
571.0    0.414
572.0    0.418
573.0    0.421
574.0    0.423
575.0    0.424
576.0    0.427
577.0    0.429
578.0    0.431
579.0    0.433
580.0    0.436
581.0    0.439
582.0    0.443
583.0    0.444
584.0    0.446
585.0    0.446
586.0    0.446
587.0    0.444
588.0    0.441
589.0    0.438
590.0    0.438
591.0    0.446
592.0    0.443
593.0    0.448
594.0    0.448
595.0    0.446
596.0    0.449
597.0    0.448
598.0    0.450
599.0    0.452
600.0    0.454
601.0    0.456
602.0    0.457
603.0    0.459
604.0    0.460
605.0    0.461
606.0    0.461
607.0    0.461
608.0    0.462
609.0    0.462
610.0    0.464
611.0    0.468
612.0    0.467
613.0    0.469
614.0    0.472
615.0    0.472
616.0    0.474
617.0    0.474
618.0    0.476
619.0    0.476
620.0    0.477
621.0    0.477
622.0    0.477
623.0    0.478
624.0    0.479
625.0    0.479
626.0    0.479
627.0    0.478
628.0    0.464
629.0    0.475
630.0    0.477
631.0    0.480
632.0    0.482
633.0    0.485
634.0    0.486
635.0    0.488
636.0    0.490
637.0    0.492
638.0    0.495
639.0    0.495
640.0    0.497
641.0    0.499
642.0    0.500
643.0    0.500
644.0    0.500
645.0    0.500
646.0    0.497
647.0    0.496
648.0    0.496
649.0    0.498
650.0    0.502
651.0    0.506
652.0    0.499
653.0    0.504
654.0    0.505
655.0    0.505
656.0    0.507
657.0    0.509
658.0    0.511
659.0    0.512
660.0    0.513
661.0    0.516
662.0    0.515
663.0    0.513
664.0    0.513
665.0    0.513
666.0    0.514
667.0    0.516
668.0    0.517
669.0    0.520
670.0    0.521
671.0    0.521
672.0    0.522
673.0    0.522
674.0    0.522
675.0    0.522
676.0    0.522
677.0    0.522
678.0    0.522
679.0    0.523
680.0    0.524
681.0    0.525
682.0    0.526
683.0    0.526
684.0    0.526
685.0    0.525
686.0    0.524
687.0    0.454
688.0    0.476
689.0    0.470
690.0    0.481
691.0    0.500
692.0    0.506
693.0    0.508
694.0    0.507
695.0    0.511
696.0    0.513
697.0    0.521
698.0    0.519
699.0    0.514
700.0    0.516
701.0    0.517
702.0    0.521
703.0    0.526
704.0    0.525
705.0    0.520
706.0    0.518
707.0    0.514
708.0    0.509
709.0    0.476
710.0    0.466
711.0    0.473
712.0    0.481
713.0    0.441
714.0    0.402
715.0    0.313
716.0    0.224
717.0    0.149
718.0    0.080
719.0    0.068
720.0    0.056
721.0    0.093
722.0    0.008
723.0    0.006
724.0    0.005
725.0    0.003
726.0    0.002
727.0    0.001
728.0    0.001
729.0    0.001
730.0    0.001
731.0    0.001
732.0    0.001
733.0    0.001
734.0    0.000
735.0    0.000
736.0    0.000
737.0    0.000
738.0    0.000
739.0    0.000
740.0    0.000
741.0    0.000
742.0    0.000
743.0    0.000
744.0    0.000
745.0    0.000
746.0    0.000
747.0    0.000
748.0    0.000
749.0    0.000
750.0    0.000
751.0    0.000
752.0    0.000
753.0    0.000
754.0    0.000
755.0    0.000
756.0    0.000
757.0    0.000
758.0    0.000
759.0    0.000
760.0    0.000
761.0    0.000
762.0    0.000
763.0    0.000
764.0    0.000
765.0    0.000
766.0    0.000
767.0    0.000
768.0    0.000
769.0    0.000
770.0    0.000
771.0    0.000
772.0    0.000
773.0    0.000
774.0    0.000
775.0    0.000
776.0    0.000
777.0    0.000
778.0    0.000
779.0    0.000
780.0    0.000
781.0    0.000
782.0    0.000
783.0    0.000
784.0    0.000
785.0    0.000
786.0    0.000
787.0    0.000
788.0    0.000
789.0    0.000
790.0    0.000
791.0    0.000
792.0    0.000
793.0    0.000
794.0    0.000
795.0    0.000
796.0    0.000
797.0    0.000
798.0    0.000
799.0    0.000
800.0    0.000
801.0    0.000
802.0    0.000
803.0    0.000
804.0    0.000
805.0    0.000
806.0    0.000
807.0    0.000
808.0    0.000
809.0    0.000
810.0    0.000
811.0    0.000
812.0    0.000
813.0    0.000
814.0    0.000
815.0    0.000
816.0    0.000
817.0    0.000
818.0    0.000
819.0    0.000
820.0    0.000
821.0    0.000
822.0    0.000
823.0    0.000
824.0    0.000
825.0    0.000
826.0    0.000
827.0    0.000
828.0    0.000
829.0    0.000
830.0    0.000
831.0    0.000
832.0    0.000
833.0    0.000
834.0    0.000
835.0    0.000
836.0    0.000
837.0    0.000
838.0    0.000
839.0    0.000
840.0    0.000
841.0    0.000
842.0    0.000
843.0    0.000
844.0    0.000
845.0    0.000
846.0    0.000
847.0    0.000
848.0    0.000
849.0    0.001
850.0    0.001
851.0    0.001
852.0    0.001
853.0    0.001
854.0    0.001
855.0    0.001
856.0    0.001
857.0    0.001
858.0    0.001
859.0    0.001
860.0    0.001
861.0    0.001
862.0    0.001
863.0    0.001
864.0    0.001
865.0    0.001
866.0    0.001
867.0    0.001
868.0    0.001
869.0    0.001
870.0    0.001
871.0    0.001
872.0    0.001
873.0    0.001
874.0    0.001
875.0    0.001
876.0    0.001
877.0    0.001
878.0    0.001
879.0    0.001
880.0    0.001
881.0    0.001
882.0    0.001
883.0    0.001
884.0    0.001
885.0    0.001
886.0    0.001
887.0    0.001
888.0    0.001
889.0    0.001
890.0    0.001
891.0    0.001
892.0    0.001
893.0    0.001
894.0    0.001
895.0    0.001
896.0    0.001
897.0    0.001
898.0    0.001
899.0    0.001
900.0    0.001
901.0    0.001
902.0    0.000
903.0    0.001
904.0    0.001
905.0    0.001
906.0    0.001
907.0    0.001
908.0    0.001
909.0    0.001
910.0    0.001
911.0    0.001
912.0    0.001
913.0    0.001
914.0    0.001
915.0    0.001
916.0    0.001
917.0    0.001
918.0    0.001
919.0    0.001
920.0    0.001
921.0    0.001
922.0    0.001
923.0    0.001
924.0    0.001
925.0    0.001
926.0    0.001
927.0    0.001
928.0    0.001
929.0    0.001
930.0    0.001
931.0    0.000
932.0    0.000
933.0    0.000
934.0    0.000
935.0    0.000
936.0    0.000
937.0    0.000
938.0    0.000
939.0    0.001
940.0    0.001
941.0    0.001
942.0    0.001
943.0    0.000
944.0    0.000
945.0    0.000
946.0    0.000
947.0    0.000
948.0    0.000
949.0    0.000
950.0    0.000
951.0    0.000
952.0    0.000
953.0    0.000
954.0    0.000
955.0    0.000
956.0    0.000
957.0    0.000
958.0    0.000
959.0    0.000
960.0    0.001
961.0    0.000
962.0    0.000
963.0    0.001
964.0    0.001
965.0    0.001
966.0    0.001
967.0    0.001
968.0    0.001
969.0    0.001
970.0    0.001
971.0    0.001
972.0    0.001
973.0    0.001
974.0    0.001
975.0    0.001
976.0    0.000
977.0    0.000
978.0    0.000
979.0    0.000
980.0    0.000
981.0    0.000
982.0    0.000
983.0    0.001
984.0    0.001
985.0    0.001
986.0    0.001
987.0    0.001
988.0    0.001
989.0    0.000
