# file: RP_GAIA.Euclid.pb
# instrument: Euclid
# system: AB
# xtype: wavelength
# ytype: qe
# description: Full system QE
# comment: SPV2 values from SPV02 branch of the Euclid MDB
# comment: MDB file: EUC_MDB_MISSIONCONFIGURATION-SPV02_2018-06-16T140000.00Z_01.01.xml
# comment: MDB variable: ExternalData.GAIA.TotalSystemTransmissionExpressedAsQE
# url: http://euclid.esac.esa.int/epdb/db/SPV02/
# reference: Euclid Consortium Mission Performance Document, V 2.0
# xref: 780.0 nm
# filter: RP_GAIA
# xunit: nm
 300.00    0.0000000000
 300.25    0.0000000000
 300.50    0.0000000000
 300.75    0.0000000000
 301.00    0.0000000000
 301.25    0.0000000000
 301.50    0.0000000000
 301.75    0.0000000000
 302.00    0.0000000000
 302.25    0.0000000000
 302.50    0.0000000000
 302.75    0.0000000000
 303.00    0.0000000000
 303.25    0.0000000000
 303.50    0.0000000000
 303.75    0.0000000000
 304.00    0.0000000000
 304.25    0.0000000000
 304.50    0.0000000000
 304.75    0.0000000000
 305.00    0.0000000000
 305.25    0.0000000000
 305.50    0.0000000000
 305.75    0.0000000000
 306.00    0.0000000000
 306.25    0.0000000000
 306.50    0.0000000000
 306.75    0.0000000000
 307.00    0.0000000000
 307.25    0.0000000000
 307.50    0.0000000000
 307.75    0.0000000000
 308.00    0.0000000000
 308.25    0.0000000000
 308.50    0.0000000000
 308.75    0.0000000000
 309.00    0.0000000000
 309.25    0.0000000000
 309.50    0.0000000000
 309.75    0.0000000000
 310.00    0.0000000000
 310.25    0.0000000000
 310.50    0.0000000000
 310.75    0.0000000000
 311.00    0.0000000000
 311.25    0.0000000000
 311.50    0.0000000000
 311.75    0.0000000000
 312.00    0.0000000000
 312.25    0.0000000000
 312.50    0.0000000000
 312.75    0.0000000000
 313.00    0.0000000000
 313.25    0.0000000000
 313.50    0.0000000000
 313.75    0.0000000000
 314.00    0.0000000000
 314.25    0.0000000000
 314.50    0.0000000000
 314.75    0.0000000000
 315.00    0.0000000000
 315.25    0.0000000000
 315.50    0.0000000000
 315.75    0.0000000000
 316.00    0.0000000000
 316.25    0.0000000000
 316.50    0.0000000000
 316.75    0.0000000000
 317.00    0.0000000000
 317.25    0.0000000000
 317.50    0.0000000000
 317.75    0.0000000000
 318.00    0.0000000000
 318.25    0.0000000000
 318.50    0.0000000000
 318.75    0.0000000000
 319.00    0.0000000000
 319.25    0.0000000000
 319.50    0.0000000000
 319.75    0.0000000000
 320.00    0.0000000000
 320.25    0.0000000000
 320.50    0.0000000000
 320.75    0.0000000000
 321.00    0.0000000000
 321.25    0.0000000000
 321.50    0.0000000000
 321.75    0.0000000000
 322.00    0.0000000000
 322.25    0.0000000000
 322.50    0.0000000000
 322.75    0.0000000000
 323.00    0.0000000000
 323.25    0.0000000000
 323.50    0.0000000000
 323.75    0.0000000000
 324.00    0.0000000000
 324.25    0.0000000000
 324.50    0.0000000000
 324.75    0.0000000000
 325.00    0.0000000000
 325.25    0.0000000000
 325.50    0.0000000000
 325.75    0.0000000000
 326.00    0.0000000000
 326.25    0.0000000000
 326.50    0.0000000000
 326.75    0.0000000000
 327.00    0.0000000000
 327.25    0.0000000000
 327.50    0.0000000000
 327.75    0.0000000000
 328.00    0.0000000000
 328.25    0.0000000000
 328.50    0.0000000000
 328.75    0.0000000000
 329.00    0.0000000000
 329.25    0.0000000000
 329.50    0.0000000000
 329.75    0.0000000000
 330.00    0.0000000000
 330.25    0.0000000000
 330.50    0.0000000000
 330.75    0.0000000000
 331.00    0.0000000000
 331.25    0.0000000000
 331.50    0.0000000000
 331.75    0.0000000000
 332.00    0.0000000000
 332.25    0.0000000000
 332.50    0.0000000000
 332.75    0.0000000000
 333.00    0.0000000000
 333.25    0.0000000000
 333.50    0.0000000000
 333.75    0.0000000000
 334.00    0.0000000000
 334.25    0.0000000000
 334.50    0.0000000000
 334.75    0.0000000000
 335.00    0.0000000000
 335.25    0.0000000000
 335.50    0.0000000000
 335.75    0.0000000000
 336.00    0.0000000000
 336.25    0.0000000000
 336.50    0.0000000000
 336.75    0.0000000000
 337.00    0.0000000000
 337.25    0.0000000000
 337.50    0.0000000000
 337.75    0.0000000000
 338.00    0.0000000000
 338.25    0.0000000000
 338.50    0.0000000000
 338.75    0.0000000000
 339.00    0.0000000000
 339.25    0.0000000000
 339.50    0.0000000000
 339.75    0.0000000000
 340.00    0.0000000000
 340.25    0.0000000000
 340.50    0.0000000000
 340.75    0.0000000000
 341.00    0.0000000000
 341.25    0.0000000000
 341.50    0.0000000000
 341.75    0.0000000000
 342.00    0.0000000000
 342.25    0.0000000000
 342.50    0.0000000000
 342.75    0.0000000000
 343.00    0.0000000000
 343.25    0.0000000000
 343.50    0.0000000000
 343.75    0.0000000000
 344.00    0.0000000000
 344.25    0.0000000000
 344.50    0.0000000000
 344.75    0.0000000000
 345.00    0.0000000000
 345.25    0.0000000000
 345.50    0.0000000000
 345.75    0.0000000000
 346.00    0.0000000000
 346.25    0.0000000000
 346.50    0.0000000000
 346.75    0.0000000000
 347.00    0.0000000000
 347.25    0.0000000000
 347.50    0.0000000000
 347.75    0.0000000000
 348.00    0.0000000000
 348.25    0.0000000000
 348.50    0.0000000000
 348.75    0.0000000000
 349.00    0.0000000000
 349.25    0.0000000000
 349.50    0.0000000000
 349.75    0.0000000000
 350.00    0.0000000000
 350.25    0.0000000000
 350.50    0.0000000000
 350.75    0.0000000000
 351.00    0.0000000000
 351.25    0.0000000000
 351.50    0.0000000000
 351.75    0.0000000000
 352.00    0.0000000000
 352.25    0.0000000000
 352.50    0.0000000000
 352.75    0.0000000000
 353.00    0.0000000000
 353.25    0.0000000000
 353.50    0.0000000000
 353.75    0.0000000000
 354.00    0.0000000000
 354.25    0.0000000000
 354.50    0.0000000000
 354.75    0.0000000000
 355.00    0.0000000000
 355.25    0.0000000000
 355.50    0.0000000000
 355.75    0.0000000000
 356.00    0.0000000000
 356.25    0.0000000000
 356.50    0.0000000000
 356.75    0.0000000000
 357.00    0.0000000000
 357.25    0.0000000000
 357.50    0.0000000000
 357.75    0.0000000000
 358.00    0.0000000000
 358.25    0.0000000000
 358.50    0.0000000000
 358.75    0.0000000000
 359.00    0.0000000000
 359.25    0.0000000000
 359.50    0.0000000000
 359.75    0.0000000000
 360.00    0.0000000000
 360.25    0.0000000000
 360.50    0.0000000000
 360.75    0.0000000000
 361.00    0.0000000000
 361.25    0.0000000000
 361.50    0.0000000000
 361.75    0.0000000000
 362.00    0.0000000000
 362.25    0.0000000000
 362.50    0.0000000000
 362.75    0.0000000000
 363.00    0.0000000000
 363.25    0.0000000000
 363.50    0.0000000000
 363.75    0.0000000000
 364.00    0.0000000000
 364.25    0.0000000000
 364.50    0.0000000000
 364.75    0.0000000000
 365.00    0.0000000000
 365.25    0.0000000000
 365.50    0.0000000000
 365.75    0.0000000000
 366.00    0.0000000000
 366.25    0.0000000000
 366.50    0.0000000000
 366.75    0.0000000000
 367.00    0.0000000000
 367.25    0.0000000000
 367.50    0.0000000000
 367.75    0.0000000000
 368.00    0.0000000000
 368.25    0.0000000000
 368.50    0.0000000000
 368.75    0.0000000000
 369.00    0.0000000000
 369.25    0.0000000000
 369.50    0.0000000000
 369.75    0.0000000000
 370.00    0.0000000000
 370.25    0.0000000000
 370.50    0.0000000000
 370.75    0.0000000000
 371.00    0.0000000000
 371.25    0.0000000000
 371.50    0.0000000000
 371.75    0.0000000000
 372.00    0.0000000000
 372.25    0.0000000000
 372.50    0.0000000000
 372.75    0.0000000000
 373.00    0.0000000000
 373.25    0.0000000000
 373.50    0.0000000000
 373.75    0.0000000000
 374.00    0.0000000000
 374.25    0.0000000000
 374.50    0.0000000000
 374.75    0.0000000000
 375.00    0.0000000000
 375.25    0.0000000000
 375.50    0.0000000000
 375.75    0.0000000000
 376.00    0.0000000000
 376.25    0.0000000000
 376.50    0.0000000000
 376.75    0.0000000000
 377.00    0.0000000000
 377.25    0.0000000000
 377.50    0.0000000000
 377.75    0.0000000000
 378.00    0.0000000000
 378.25    0.0000000000
 378.50    0.0000000000
 378.75    0.0000000000
 379.00    0.0000000000
 379.25    0.0000000000
 379.50    0.0000000000
 379.75    0.0000000000
 380.00    0.0000000000
 380.25    0.0000000000
 380.50    0.0000000000
 380.75    0.0000000000
 381.00    0.0000000000
 381.25    0.0000000000
 381.50    0.0000000000
 381.75    0.0000000000
 382.00    0.0000000000
 382.25    0.0000000000
 382.50    0.0000000000
 382.75    0.0000000000
 383.00    0.0000000000
 383.25    0.0000000000
 383.50    0.0000000000
 383.75    0.0000000000
 384.00    0.0000000000
 384.25    0.0000000000
 384.50    0.0000000000
 384.75    0.0000000000
 385.00    0.0000000000
 385.25    0.0000000000
 385.50    0.0000000000
 385.75    0.0000000000
 386.00    0.0000000000
 386.25    0.0000000000
 386.50    0.0000000000
 386.75    0.0000000000
 387.00    0.0000000000
 387.25    0.0000000000
 387.50    0.0000000000
 387.75    0.0000000000
 388.00    0.0000000000
 388.25    0.0000000000
 388.50    0.0000000000
 388.75    0.0000000000
 389.00    0.0000000000
 389.25    0.0000000000
 389.50    0.0000000000
 389.75    0.0000000000
 390.00    0.0000000000
 390.25    0.0000000000
 390.50    0.0000000000
 390.75    0.0000000000
 391.00    0.0000000000
 391.25    0.0000000000
 391.50    0.0000000000
 391.75    0.0000000000
 392.00    0.0000000000
 392.25    0.0000000000
 392.50    0.0000000000
 392.75    0.0000000000
 393.00    0.0000000000
 393.25    0.0000000000
 393.50    0.0000000000
 393.75    0.0000000000
 394.00    0.0000000000
 394.25    0.0000000000
 394.50    0.0000000000
 394.75    0.0000000000
 395.00    0.0000000000
 395.25    0.0000000000
 395.50    0.0000000000
 395.75    0.0000000000
 396.00    0.0000000000
 396.25    0.0000000000
 396.50    0.0000000000
 396.75    0.0000000000
 397.00    0.0000000000
 397.25    0.0000000000
 397.50    0.0000000000
 397.75    0.0000000000
 398.00    0.0000000000
 398.25    0.0000000000
 398.50    0.0000000000
 398.75    0.0000000000
 399.00    0.0000000000
 399.25    0.0000000000
 399.50    0.0000000000
 399.75    0.0000000000
 400.00    0.0000000000
 400.25    0.0000000000
 400.50    0.0000000000
 400.75    0.0000000000
 401.00    0.0000000000
 401.25    0.0000000000
 401.50    0.0000000000
 401.75    0.0000000000
 402.00    0.0000000000
 402.25    0.0000000000
 402.50    0.0000000000
 402.75    0.0000000000
 403.00    0.0000000000
 403.25    0.0000000000
 403.50    0.0000000000
 403.75    0.0000000000
 404.00    0.0000000000
 404.25    0.0000000000
 404.50    0.0000000000
 404.75    0.0000000000
 405.00    0.0000000000
 405.25    0.0000000000
 405.50    0.0000000000
 405.75    0.0000000000
 406.00    0.0000000000
 406.25    0.0000000000
 406.50    0.0000000000
 406.75    0.0000000000
 407.00    0.0000000000
 407.25    0.0000000000
 407.50    0.0000000000
 407.75    0.0000000000
 408.00    0.0000000000
 408.25    0.0000000000
 408.50    0.0000000000
 408.75    0.0000000000
 409.00    0.0000000000
 409.25    0.0000000000
 409.50    0.0000000000
 409.75    0.0000000000
 410.00    0.0000000000
 410.25    0.0000000000
 410.50    0.0000000000
 410.75    0.0000000000
 411.00    0.0000000000
 411.25    0.0000000000
 411.50    0.0000000000
 411.75    0.0000000000
 412.00    0.0000000000
 412.25    0.0000000000
 412.50    0.0000000000
 412.75    0.0000000000
 413.00    0.0000000000
 413.25    0.0000000000
 413.50    0.0000000000
 413.75    0.0000000000
 414.00    0.0000000000
 414.25    0.0000000000
 414.50    0.0000000000
 414.75    0.0000000000
 415.00    0.0000000000
 415.25    0.0000000000
 415.50    0.0000000000
 415.75    0.0000000000
 416.00    0.0000000000
 416.25    0.0000000000
 416.50    0.0000000000
 416.75    0.0000000000
 417.00    0.0000000000
 417.25    0.0000000000
 417.50    0.0000000000
 417.75    0.0000000000
 418.00    0.0000000000
 418.25    0.0000000000
 418.50    0.0000000000
 418.75    0.0000000000
 419.00    0.0000000000
 419.25    0.0000000000
 419.50    0.0000000000
 419.75    0.0000000000
 420.00    0.0000000000
 420.25    0.0000000000
 420.50    0.0000000000
 420.75    0.0000000000
 421.00    0.0000000000
 421.25    0.0000000000
 421.50    0.0000000000
 421.75    0.0000000000
 422.00    0.0000000000
 422.25    0.0000000000
 422.50    0.0000000000
 422.75    0.0000000000
 423.00    0.0000000000
 423.25    0.0000000000
 423.50    0.0000000000
 423.75    0.0000000000
 424.00    0.0000000000
 424.25    0.0000000000
 424.50    0.0000000000
 424.75    0.0000000000
 425.00    0.0000000000
 425.25    0.0000000000
 425.50    0.0000000000
 425.75    0.0000000000
 426.00    0.0000000000
 426.25    0.0000000000
 426.50    0.0000000000
 426.75    0.0000000000
 427.00    0.0000000000
 427.25    0.0000000000
 427.50    0.0000000000
 427.75    0.0000000000
 428.00    0.0000000000
 428.25    0.0000000000
 428.50    0.0000000000
 428.75    0.0000000000
 429.00    0.0000000000
 429.25    0.0000000000
 429.50    0.0000000000
 429.75    0.0000000000
 430.00    0.0000000000
 430.25    0.0000000000
 430.50    0.0000000000
 430.75    0.0000000000
 431.00    0.0000000000
 431.25    0.0000000000
 431.50    0.0000000000
 431.75    0.0000000000
 432.00    0.0000000000
 432.25    0.0000000000
 432.50    0.0000000000
 432.75    0.0000000000
 433.00    0.0000000000
 433.25    0.0000000000
 433.50    0.0000000000
 433.75    0.0000000000
 434.00    0.0000000000
 434.25    0.0000000000
 434.50    0.0000000000
 434.75    0.0000000000
 435.00    0.0000000000
 435.25    0.0000000000
 435.50    0.0000000000
 435.75    0.0000000000
 436.00    0.0000000000
 436.25    0.0000000000
 436.50    0.0000000000
 436.75    0.0000000000
 437.00    0.0000000000
 437.25    0.0000000000
 437.50    0.0000000000
 437.75    0.0000000000
 438.00    0.0000000000
 438.25    0.0000000000
 438.50    0.0000000000
 438.75    0.0000000000
 439.00    0.0000000000
 439.25    0.0000000000
 439.50    0.0000000000
 439.75    0.0000000000
 440.00    0.0000000000
 440.25    0.0000000000
 440.50    0.0000000000
 440.75    0.0000000000
 441.00    0.0000000000
 441.25    0.0000000000
 441.50    0.0000000000
 441.75    0.0000000000
 442.00    0.0000000000
 442.25    0.0000000000
 442.50    0.0000000000
 442.75    0.0000000000
 443.00    0.0000000000
 443.25    0.0000000000
 443.50    0.0000000000
 443.75    0.0000000000
 444.00    0.0000000000
 444.25    0.0000000000
 444.50    0.0000000000
 444.75    0.0000000000
 445.00    0.0000000000
 445.25    0.0000000000
 445.50    0.0000000000
 445.75    0.0000000000
 446.00    0.0000000000
 446.25    0.0000000000
 446.50    0.0000000000
 446.75    0.0000000000
 447.00    0.0000000000
 447.25    0.0000000000
 447.50    0.0000000000
 447.75    0.0000000000
 448.00    0.0000000000
 448.25    0.0000000000
 448.50    0.0000000000
 448.75    0.0000000000
 449.00    0.0000000000
 449.25    0.0000000000
 449.50    0.0000000000
 449.75    0.0000000000
 450.00    0.0000000000
 450.25    0.0000000000
 450.50    0.0000000000
 450.75    0.0000000000
 451.00    0.0000000000
 451.25    0.0000000000
 451.50    0.0000000000
 451.75    0.0000000000
 452.00    0.0000000000
 452.25    0.0000000000
 452.50    0.0000000000
 452.75    0.0000000000
 453.00    0.0000000000
 453.25    0.0000000000
 453.50    0.0000000000
 453.75    0.0000000000
 454.00    0.0000000000
 454.25    0.0000000000
 454.50    0.0000000000
 454.75    0.0000000000
 455.00    0.0000000000
 455.25    0.0000000000
 455.50    0.0000000000
 455.75    0.0000000000
 456.00    0.0000000000
 456.25    0.0000000000
 456.50    0.0000000000
 456.75    0.0000000000
 457.00    0.0000000000
 457.25    0.0000000000
 457.50    0.0000000000
 457.75    0.0000000000
 458.00    0.0000000000
 458.25    0.0000000000
 458.50    0.0000000000
 458.75    0.0000000000
 459.00    0.0000000000
 459.25    0.0000000000
 459.50    0.0000000000
 459.75    0.0000000000
 460.00    0.0000000000
 460.25    0.0000000000
 460.50    0.0000000000
 460.75    0.0000000000
 461.00    0.0000000000
 461.25    0.0000000000
 461.50    0.0000000000
 461.75    0.0000000000
 462.00    0.0000000000
 462.25    0.0000000000
 462.50    0.0000000000
 462.75    0.0000000000
 463.00    0.0000000000
 463.25    0.0000000000
 463.50    0.0000000000
 463.75    0.0000000000
 464.00    0.0000000000
 464.25    0.0000000000
 464.50    0.0000000000
 464.75    0.0000000000
 465.00    0.0000000000
 465.25    0.0000000000
 465.50    0.0000000000
 465.75    0.0000000000
 466.00    0.0000000000
 466.25    0.0000000000
 466.50    0.0000000000
 466.75    0.0000000000
 467.00    0.0000000000
 467.25    0.0000000000
 467.50    0.0000000000
 467.75    0.0000000000
 468.00    0.0000000000
 468.25    0.0000000000
 468.50    0.0000000000
 468.75    0.0000000000
 469.00    0.0000000000
 469.25    0.0000000000
 469.50    0.0000000000
 469.75    0.0000000000
 470.00    0.0000000000
 470.25    0.0000000000
 470.50    0.0000000000
 470.75    0.0000000000
 471.00    0.0000000000
 471.25    0.0000000000
 471.50    0.0000000000
 471.75    0.0000000000
 472.00    0.0000000000
 472.25    0.0000000000
 472.50    0.0000000000
 472.75    0.0000000000
 473.00    0.0000000000
 473.25    0.0000000000
 473.50    0.0000000000
 473.75    0.0000000000
 474.00    0.0000000000
 474.25    0.0000000000
 474.50    0.0000000000
 474.75    0.0000000000
 475.00    0.0000000000
 475.25    0.0000000000
 475.50    0.0000000000
 475.75    0.0000000000
 476.00    0.0000000000
 476.25    0.0000000000
 476.50    0.0000000000
 476.75    0.0000000000
 477.00    0.0000000000
 477.25    0.0000000000
 477.50    0.0000000000
 477.75    0.0000000000
 478.00    0.0000000000
 478.25    0.0000000000
 478.50    0.0000000000
 478.75    0.0000000000
 479.00    0.0000000000
 479.25    0.0000000000
 479.50    0.0000000000
 479.75    0.0000000000
 480.00    0.0000000000
 480.25    0.0000000000
 480.50    0.0000000000
 480.75    0.0000000000
 481.00    0.0000000000
 481.25    0.0000000000
 481.50    0.0000000000
 481.75    0.0000000000
 482.00    0.0000000000
 482.25    0.0000000000
 482.50    0.0000000000
 482.75    0.0000000000
 483.00    0.0000000000
 483.25    0.0000000000
 483.50    0.0000000000
 483.75    0.0000000000
 484.00    0.0000000000
 484.25    0.0000000000
 484.50    0.0000000000
 484.75    0.0000000000
 485.00    0.0000000000
 485.25    0.0000000000
 485.50    0.0000000000
 485.75    0.0000000000
 486.00    0.0000000000
 486.25    0.0000000000
 486.50    0.0000000000
 486.75    0.0000000000
 487.00    0.0000000000
 487.25    0.0000000000
 487.50    0.0000000000
 487.75    0.0000000000
 488.00    0.0000000000
 488.25    0.0000000000
 488.50    0.0000000000
 488.75    0.0000000000
 489.00    0.0000000000
 489.25    0.0000000000
 489.50    0.0000000000
 489.75    0.0000000000
 490.00    0.0000000000
 490.25    0.0000000000
 490.50    0.0000000000
 490.75    0.0000000000
 491.00    0.0000000000
 491.25    0.0000000000
 491.50    0.0000000000
 491.75    0.0000000000
 492.00    0.0000000000
 492.25    0.0000000000
 492.50    0.0000000000
 492.75    0.0000000000
 493.00    0.0000000000
 493.25    0.0000000000
 493.50    0.0000000000
 493.75    0.0000000000
 494.00    0.0000000000
 494.25    0.0000000000
 494.50    0.0000000000
 494.75    0.0000000000
 495.00    0.0000000000
 495.25    0.0000000000
 495.50    0.0000000000
 495.75    0.0000000000
 496.00    0.0000000000
 496.25    0.0000000000
 496.50    0.0000000000
 496.75    0.0000000000
 497.00    0.0000000000
 497.25    0.0000000000
 497.50    0.0000000000
 497.75    0.0000000000
 498.00    0.0000000000
 498.25    0.0000000000
 498.50    0.0000000000
 498.75    0.0000000000
 499.00    0.0000000000
 499.25    0.0000000000
 499.50    0.0000000000
 499.75    0.0000000000
 500.00    0.0000000000
 500.25    0.0000000000
 500.50    0.0000000000
 500.75    0.0000000000
 501.00    0.0000000000
 501.25    0.0000000000
 501.50    0.0000000000
 501.75    0.0000000000
 502.00    0.0000000000
 502.25    0.0000000000
 502.50    0.0000000000
 502.75    0.0000000000
 503.00    0.0000000000
 503.25    0.0000000000
 503.50    0.0000000000
 503.75    0.0000000000
 504.00    0.0000000000
 504.25    0.0000000000
 504.50    0.0000000000
 504.75    0.0000000000
 505.00    0.0000000000
 505.25    0.0000000000
 505.50    0.0000000000
 505.75    0.0000000000
 506.00    0.0000000000
 506.25    0.0000000000
 506.50    0.0000000000
 506.75    0.0000000000
 507.00    0.0000000000
 507.25    0.0000000000
 507.50    0.0000000000
 507.75    0.0000000000
 508.00    0.0000000000
 508.25    0.0000000000
 508.50    0.0000000000
 508.75    0.0000000000
 509.00    0.0000000000
 509.25    0.0000000000
 509.50    0.0000000000
 509.75    0.0000000000
 510.00    0.0000000000
 510.25    0.0000000000
 510.50    0.0000000000
 510.75    0.0000000000
 511.00    0.0000000000
 511.25    0.0000000000
 511.50    0.0000000000
 511.75    0.0000000000
 512.00    0.0000000000
 512.25    0.0000000000
 512.50    0.0000000000
 512.75    0.0000000000
 513.00    0.0000000000
 513.25    0.0000000000
 513.50    0.0000000000
 513.75    0.0000000000
 514.00    0.0000000000
 514.25    0.0000000000
 514.50    0.0000000000
 514.75    0.0000000000
 515.00    0.0000000000
 515.25    0.0000000000
 515.50    0.0000000000
 515.75    0.0000000000
 516.00    0.0000000000
 516.25    0.0000000000
 516.50    0.0000000000
 516.75    0.0000000000
 517.00    0.0000000000
 517.25    0.0000000000
 517.50    0.0000000000
 517.75    0.0000000000
 518.00    0.0000000000
 518.25    0.0000000000
 518.50    0.0000000000
 518.75    0.0000000000
 519.00    0.0000000000
 519.25    0.0000000000
 519.50    0.0000000000
 519.75    0.0000000000
 520.00    0.0000000000
 520.25    0.0000000000
 520.50    0.0000000000
 520.75    0.0000000000
 521.00    0.0000000000
 521.25    0.0000000000
 521.50    0.0000000000
 521.75    0.0000000000
 522.00    0.0000000000
 522.25    0.0000000000
 522.50    0.0000000000
 522.75    0.0000000000
 523.00    0.0000000000
 523.25    0.0000000000
 523.50    0.0000000000
 523.75    0.0000000000
 524.00    0.0000000000
 524.25    0.0000000000
 524.50    0.0000000000
 524.75    0.0000000000
 525.00    0.0000000000
 525.25    0.0000000000
 525.50    0.0000000000
 525.75    0.0000000000
 526.00    0.0000000000
 526.25    0.0000000000
 526.50    0.0000000000
 526.75    0.0000000000
 527.00    0.0000000000
 527.25    0.0000000000
 527.50    0.0000000000
 527.75    0.0000000000
 528.00    0.0000000000
 528.25    0.0000000000
 528.50    0.0000000000
 528.75    0.0000000000
 529.00    0.0000000000
 529.25    0.0000000000
 529.50    0.0000000000
 529.75    0.0000000000
 530.00    0.0000000000
 530.25    0.0000000000
 530.50    0.0000000000
 530.75    0.0000000000
 531.00    0.0000000000
 531.25    0.0000000000
 531.50    0.0000000000
 531.75    0.0000000000
 532.00    0.0000000000
 532.25    0.0000000000
 532.50    0.0000000000
 532.75    0.0000000000
 533.00    0.0000000000
 533.25    0.0000000000
 533.50    0.0000000000
 533.75    0.0000000000
 534.00    0.0000000000
 534.25    0.0000000000
 534.50    0.0000000000
 534.75    0.0000000000
 535.00    0.0000000000
 535.25    0.0000000000
 535.50    0.0000000000
 535.75    0.0000000000
 536.00    0.0000000000
 536.25    0.0000000000
 536.50    0.0000000000
 536.75    0.0000000000
 537.00    0.0000000000
 537.25    0.0000000000
 537.50    0.0000000000
 537.75    0.0000000000
 538.00    0.0000000000
 538.25    0.0000000000
 538.50    0.0000000000
 538.75    0.0000000000
 539.00    0.0000000000
 539.25    0.0000000000
 539.50    0.0000000000
 539.75    0.0000000000
 540.00    0.0000000000
 540.25    0.0000000000
 540.50    0.0000000000
 540.75    0.0000000000
 541.00    0.0000000000
 541.25    0.0000000000
 541.50    0.0000000000
 541.75    0.0000000000
 542.00    0.0000000000
 542.25    0.0000000000
 542.50    0.0000000000
 542.75    0.0000000000
 543.00    0.0000000000
 543.25    0.0000000000
 543.50    0.0000000000
 543.75    0.0000000000
 544.00    0.0000000000
 544.25    0.0000000000
 544.50    0.0000000000
 544.75    0.0000000000
 545.00    0.0000000000
 545.25    0.0000000000
 545.50    0.0000000000
 545.75    0.0000000000
 546.00    0.0000000000
 546.25    0.0000000000
 546.50    0.0000000000
 546.75    0.0000000000
 547.00    0.0000000000
 547.25    0.0000000000
 547.50    0.0000000000
 547.75    0.0000000000
 548.00    0.0000000000
 548.25    0.0000000000
 548.50    0.0000000000
 548.75    0.0000000000
 549.00    0.0000000000
 549.25    0.0000000000
 549.50    0.0000000000
 549.75    0.0000000000
 550.00    0.0000000000
 550.25    0.0000000000
 550.50    0.0000000000
 550.75    0.0000000000
 551.00    0.0000000000
 551.25    0.0000000000
 551.50    0.0000000000
 551.75    0.0000000000
 552.00    0.0000000000
 552.25    0.0000000000
 552.50    0.0000000000
 552.75    0.0000000000
 553.00    0.0000000000
 553.25    0.0000000000
 553.50    0.0000000000
 553.75    0.0000000000
 554.00    0.0000000000
 554.25    0.0000000000
 554.50    0.0000000000
 554.75    0.0000000000
 555.00    0.0000000000
 555.25    0.0000000000
 555.50    0.0000000000
 555.75    0.0000000000
 556.00    0.0000000000
 556.25    0.0000000000
 556.50    0.0000000000
 556.75    0.0000000000
 557.00    0.0000000000
 557.25    0.0000000000
 557.50    0.0000000000
 557.75    0.0000000000
 558.00    0.0000000000
 558.25    0.0000000000
 558.50    0.0000000000
 558.75    0.0000000000
 559.00    0.0000000000
 559.25    0.0000000000
 559.50    0.0000000000
 559.75    0.0000000000
 560.00    0.0000000000
 560.25    0.0000000000
 560.50    0.0000000000
 560.75    0.0000000000
 561.00    0.0000000000
 561.25    0.0000000000
 561.50    0.0000000000
 561.75    0.0000000000
 562.00    0.0000000000
 562.25    0.0000000000
 562.50    0.0000000000
 562.75    0.0000000000
 563.00    0.0000000000
 563.25    0.0000000000
 563.50    0.0000000000
 563.75    0.0000000000
 564.00    0.0000000000
 564.25    0.0000000000
 564.50    0.0000000000
 564.75    0.0000000000
 565.00    0.0000000000
 565.25    0.0000000000
 565.50    0.0000000000
 565.75    0.0000000000
 566.00    0.0000000000
 566.25    0.0000000000
 566.50    0.0000000000
 566.75    0.0000000000
 567.00    0.0000000000
 567.25    0.0000000000
 567.50    0.0000000000
 567.75    0.0000000000
 568.00    0.0000000000
 568.25    0.0000000000
 568.50    0.0000000000
 568.75    0.0000000000
 569.00    0.0000000000
 569.25    0.0000000000
 569.50    0.0000000000
 569.75    0.0000000000
 570.00    0.0000000000
 570.25    0.0000000000
 570.50    0.0000000000
 570.75    0.0000000000
 571.00    0.0000000000
 571.25    0.0000000000
 571.50    0.0000000000
 571.75    0.0000000000
 572.00    0.0000000000
 572.25    0.0000000000
 572.50    0.0000000000
 572.75    0.0000000000
 573.00    0.0000000000
 573.25    0.0000000000
 573.50    0.0000000000
 573.75    0.0000000000
 574.00    0.0000000000
 574.25    0.0000000000
 574.50    0.0000000000
 574.75    0.0000000000
 575.00    0.0000000000
 575.25    0.0000000000
 575.50    0.0000000000
 575.75    0.0000000000
 576.00    0.0000000000
 576.25    0.0000000000
 576.50    0.0000000000
 576.75    0.0000000000
 577.00    0.0000000000
 577.25    0.0000000000
 577.50    0.0000000000
 577.75    0.0000000000
 578.00    0.0000000000
 578.25    0.0000000000
 578.50    0.0000000000
 578.75    0.0000000000
 579.00    0.0000000000
 579.25    0.0000000000
 579.50    0.0000000000
 579.75    0.0000000000
 580.00    0.0000000000
 580.25    0.0000000000
 580.50    0.0000000000
 580.75    0.0000000000
 581.00    0.0000000000
 581.25    0.0000000000
 581.50    0.0000000000
 581.75    0.0000000000
 582.00    0.0000000000
 582.25    0.0000000000
 582.50    0.0000000000
 582.75    0.0000000000
 583.00    0.0000000000
 583.25    0.0000000000
 583.50    0.0000000000
 583.75    0.0000000000
 584.00    0.0000000000
 584.25    0.0000000000
 584.50    0.0000000000
 584.75    0.0000000000
 585.00    0.0000000000
 585.25    0.0000000000
 585.50    0.0000000000
 585.75    0.0000000000
 586.00    0.0000000000
 586.25    0.0000000000
 586.50    0.0000000000
 586.75    0.0000000000
 587.00    0.0000000000
 587.25    0.0000000000
 587.50    0.0000000000
 587.75    0.0000000000
 588.00    0.0000000000
 588.25    0.0000000000
 588.50    0.0000000000
 588.75    0.0000000000
 589.00    0.0000000000
 589.25    0.0000000000
 589.50    0.0000000000
 589.75    0.0000000000
 590.00    0.0000000000
 590.25    0.0000000000
 590.50    0.0000000000
 590.75    0.0000000000
 591.00    0.0000000000
 591.25    0.0000000000
 591.50    0.0000000000
 591.75    0.0000000000
 592.00    0.0000000000
 592.25    0.0000000000
 592.50    0.0000000000
 592.75    0.0000000000
 593.00    0.0000000000
 593.25    0.0000000000
 593.50    0.0000000000
 593.75    0.0000000000
 594.00    0.0000000000
 594.25    0.0000000000
 594.50    0.0000000000
 594.75    0.0000000000
 595.00    0.0000000000
 595.25    0.0000000000
 595.50    0.0000000000
 595.75    0.0000000000
 596.00    0.0000000000
 596.25    0.0000000000
 596.50    0.0000000000
 596.75    0.0000000000
 597.00    0.0000000000
 597.25    0.0000000000
 597.50    0.0000000000
 597.75    0.0000000000
 598.00    0.0000000000
 598.25    0.0000000000
 598.50    0.0000000000
 598.75    0.0000000000
 599.00    0.0000000000
 599.25    0.0000000000
 599.50    0.0000000000
 599.75    0.0000000000
 600.00    0.0000073366
 600.25    0.0000073370
 600.50    0.0000073378
 600.75    0.0000073389
 601.00    0.0000073405
 601.25    0.0000073466
 601.50    0.0000073535
 601.75    0.0000073615
 602.00    0.0000073709
 602.25    0.0000073807
 602.50    0.0000073929
 602.75    0.0000074082
 603.00    0.0000074273
 603.25    0.0000074508
 603.50    0.0000074808
 603.75    0.0000075192
 604.00    0.0000075683
 604.25    0.0000076328
 604.50    0.0000077148
 604.75    0.0000078189
 605.00    0.0000079509
 605.25    0.0000081172
 605.50    0.0000083278
 605.75    0.0000085942
 606.00    0.0000089304
 606.25    0.0000093548
 606.50    0.0000098878
 606.75    0.0000105559
 607.00    0.0000113914
 607.25    0.0000124313
 607.50    0.0000137256
 607.75    0.0000153326
 608.00    0.0000173227
 608.25    0.0000197822
 608.50    0.0000228130
 608.75    0.0000265385
 609.00    0.0000311066
 609.25    0.0000366973
 609.50    0.0000435184
 609.75    0.0000518199
 610.00    0.0000618975
 610.25    0.0000740880
 610.50    0.0000888099
 610.75    0.0001065440
 611.00    0.0001278525
 611.25    0.0001534302
 611.50    0.0001840161
 611.75    0.0002204984
 612.00    0.0002639039
 612.25    0.0003153528
 612.50    0.0003762433
 612.75    0.0004481259
 613.00    0.0005327704
 613.25    0.0006322247
 613.50    0.0007487510
 613.75    0.0008849346
 614.00    0.0010436892
 614.25    0.0012281804
 614.50    0.0014421425
 614.75    0.0016896557
 615.00    0.0019752569
 615.25    0.0023040948
 615.50    0.0026816401
 615.75    0.0031140109
 616.00    0.0036079168
 616.25    0.0041709709
 616.50    0.0048109577
 616.75    0.0055365495
 617.00    0.0063571168
 617.25    0.0072835728
 617.50    0.0083261370
 617.75    0.0094963945
 618.00    0.0108066643
 618.25    0.0122665434
 618.50    0.0138923128
 618.75    0.0156982444
 619.00    0.0176992301
 619.25    0.0199104804
 619.50    0.0223481504
 619.75    0.0250286284
 620.00    0.0279686459
 620.25    0.0311877020
 620.50    0.0347009485
 620.75    0.0385255778
 621.00    0.0426786620
 621.25    0.0471693173
 621.50    0.0520200396
 621.75    0.0572464475
 622.00    0.0628633955
 622.25    0.0689092278
 622.50    0.0753768773
 622.75    0.0822783009
 623.00    0.0896239947
 623.25    0.0974250300
 623.50    0.1056866150
 623.75    0.1144138550
 624.00    0.1236097310
 624.25    0.1332423520
 624.50    0.1433377220
 624.75    0.1538913410
 625.00    0.1648961390
 625.25    0.1763491340
 625.50    0.1882321530
 625.75    0.2005302150
 626.00    0.2132256880
 626.25    0.2262829030
 626.50    0.2396927060
 626.75    0.2534298450
 627.00    0.2674667810
 627.25    0.2818080170
 627.50    0.2963912950
 627.75    0.3111833500
 628.00    0.3261493890
 628.25    0.3412195020
 628.50    0.3563874550
 628.75    0.3716154090
 629.00    0.3868650880
 629.25    0.4021586970
 629.50    0.4174018670
 629.75    0.4325566940
 630.00    0.4475859660
 630.25    0.4623747800
 630.50    0.4769618500
 630.75    0.4913137680
 631.00    0.5053988600
 631.25    0.5191351990
 631.50    0.5325446760
 631.75    0.5456020710
 632.00    0.5582845900
 632.25    0.5707074970
 632.50    0.5827232230
 632.75    0.5943164500
 633.00    0.6054745180
 633.25    0.6161430240
 633.50    0.6263575330
 633.75    0.6361133300
 634.00    0.6454081890
 634.25    0.6542916000
 634.50    0.6627179070
 634.75    0.6706915720
 635.00    0.6782190420
 635.25    0.6851398100
 635.50    0.6916294080
 635.75    0.6976995600
 636.00    0.7033632820
 636.25    0.7087327540
 636.50    0.7137263220
 636.75    0.7183596450
 637.00    0.7226489780
 637.25    0.7265126560
 637.50    0.7300650320
 637.75    0.7333233090
 638.00    0.7363046780
 638.25    0.7392261340
 638.50    0.7419058480
 638.75    0.7443600850
 639.00    0.7466046900
 639.25    0.7485663100
 639.50    0.7503480560
 639.75    0.7519641690
 640.00    0.7534282330
 640.25    0.7547190410
 640.50    0.7558827930
 640.75    0.7569309750
 641.00    0.7578743500
 641.25    0.7586186510
 641.50    0.7592773450
 641.75    0.7598591040
 642.00    0.7603719240
 642.25    0.7608669770
 642.50    0.7613071990
 642.75    0.7616987100
 643.00    0.7620470700
 643.25    0.7624270560
 643.50    0.7627735080
 643.75    0.7630905050
 644.00    0.7633816990
 644.25    0.7636995610
 644.50    0.7639978080
 644.75    0.7642790160
 645.00    0.7645454630
 645.25    0.7646990680
 645.50    0.7648416740
 645.75    0.7649748310
 646.00    0.7650998960
 646.25    0.7650441500
 646.50    0.7649825010
 646.75    0.7649158380
 647.00    0.7648449300
 647.25    0.7664694350
 647.50    0.7680914460
 647.75    0.7697114270
 648.00    0.7713297770
 648.25    0.7718681610
 648.50    0.7724052330
 648.75    0.7729412420
 649.00    0.7734763990
 649.25    0.7733650420
 649.50    0.7732529840
 649.75    0.7731403490
 650.00    0.7730272410
 650.25    0.7729078330
 650.50    0.7727880980
 650.75    0.7726680940
 651.00    0.7725478700
 651.25    0.7725266580
 651.50    0.7725052970
 651.75    0.7724838120
 652.00    0.7724622260
 652.25    0.7725528240
 652.50    0.7726433700
 652.75    0.7727338750
 653.00    0.7728243490
 653.25    0.7729566800
 653.50    0.7730890000
 653.75    0.7732213130
 654.00    0.7733536230
 654.25    0.7735733480
 654.50    0.7737930950
 654.75    0.7740128670
 655.00    0.7742326650
 655.25    0.7742108570
 655.50    0.7741890460
 655.75    0.7741672310
 656.00    0.7741454140
 656.25    0.7741502060
 656.50    0.7741549810
 656.75    0.7741597390
 657.00    0.7741644810
 657.25    0.7738698130
 657.50    0.7735751870
 657.75    0.7732806060
 658.00    0.7729860680
 658.25    0.7728637650
 658.50    0.7727414010
 658.75    0.7726189760
 659.00    0.7724964890
 659.25    0.7720532280
 659.50    0.7716100500
 659.75    0.7711669550
 660.00    0.7707239440
 660.25    0.7703706980
 660.50    0.7700173850
 660.75    0.7696640080
 661.00    0.7693105640
 661.25    0.7689845860
 661.50    0.7686586030
 661.75    0.7683326130
 662.00    0.7680066180
 662.25    0.7678236710
 662.50    0.7676406400
 662.75    0.7674575270
 663.00    0.7672743290
 663.25    0.7668642100
 663.50    0.7664541310
 663.75    0.7660440910
 664.00    0.7656340900
 664.25    0.7653036050
 664.50    0.7649731620
 664.75    0.7646427600
 665.00    0.7643124000
 665.25    0.7639647200
 665.50    0.7636171040
 665.75    0.7632695530
 666.00    0.7629220650
 666.25    0.7626575860
 666.50    0.7623931400
 666.75    0.7621287280
 667.00    0.7618643490
 667.25    0.7617454460
 667.50    0.7616265360
 667.75    0.7615076190
 668.00    0.7613886960
 668.25    0.7613159460
 668.50    0.7612431740
 668.75    0.7611703800
 669.00    0.7610975640
 669.25    0.7610306240
 669.50    0.7609636640
 669.75    0.7608966830
 670.00    0.7608296820
 670.25    0.7605886400
 670.50    0.7603476360
 670.75    0.7601066710
 671.00    0.7598657440
 671.25    0.7597619520
 671.50    0.7596581170
 671.75    0.7595542390
 672.00    0.7594503190
 672.25    0.7590281780
 672.50    0.7586061540
 672.75    0.7581842470
 673.00    0.7577624570
 673.25    0.7574847550
 673.50    0.7572070680
 673.75    0.7569293960
 674.00    0.7566517390
 674.25    0.7564058620
 674.50    0.7561599880
 674.75    0.7559141190
 675.00    0.7556682540
 675.25    0.7554583970
 675.50    0.7552485170
 675.75    0.7550386130
 676.00    0.7548286870
 676.25    0.7544740470
 676.50    0.7541194510
 676.75    0.7537648990
 677.00    0.7534103900
 677.25    0.7530021370
 677.50    0.7525939750
 677.75    0.7521859040
 678.00    0.7517779230
 678.25    0.7513894670
 678.50    0.7510011000
 678.75    0.7506128230
 679.00    0.7502246340
 679.25    0.7499020800
 679.50    0.7495795580
 679.75    0.7492570680
 680.00    0.7489346110
 680.25    0.7486754850
 680.50    0.7484163870
 680.75    0.7481573180
 681.00    0.7478982760
 681.25    0.7476294070
 681.50    0.7473605530
 681.75    0.7470917140
 682.00    0.7468228900
 682.25    0.7465194280
 682.50    0.7462160060
 682.75    0.7459126240
 683.00    0.7456092820
 683.25    0.7453882920
 683.50    0.7451673280
 683.75    0.7449463900
 684.00    0.7447254760
 684.25    0.7445614900
 684.50    0.7443975230
 684.75    0.7442335730
 685.00    0.7440696410
 685.25    0.7439169550
 685.50    0.7437642830
 685.75    0.7436116270
 686.00    0.7434589860
 686.25    0.7434121590
 686.50    0.7433653320
 686.75    0.7433185050
 687.00    0.7432716790
 687.25    0.7433075930
 687.50    0.7433435000
 687.75    0.7433794000
 688.00    0.7434152940
 688.25    0.7433271050
 688.50    0.7432388990
 688.75    0.7431506760
 689.00    0.7430624340
 689.25    0.7432326090
 689.50    0.7434028030
 689.75    0.7435730160
 690.00    0.7437432480
 690.25    0.7438548590
 690.50    0.7439664160
 690.75    0.7440779190
 691.00    0.7441893670
 691.25    0.7441327870
 691.50    0.7440761250
 691.75    0.7440193820
 692.00    0.7439625570
 692.25    0.7444393620
 692.50    0.7449163200
 692.75    0.7453934300
 693.00    0.7458706920
 693.25    0.7459835230
 693.50    0.7460962230
 693.75    0.7462087910
 694.00    0.7463212280
 694.25    0.7466429190
 694.50    0.7469646400
 694.75    0.7472863920
 695.00    0.7476081750
 695.25    0.7478369330
 695.50    0.7480655950
 695.75    0.7482941590
 696.00    0.7485226260
 696.25    0.7488200760
 696.50    0.7491174840
 696.75    0.7494148510
 697.00    0.7497121750
 697.25    0.7500017470
 697.50    0.7502912870
 697.75    0.7505807940
 698.00    0.7508702680
 698.25    0.7510682920
 698.50    0.7512661390
 698.75    0.7514638100
 699.00    0.7516613050
 699.25    0.7519517010
 699.50    0.7522420470
 699.75    0.7525323440
 700.00    0.7528225900
 700.25    0.7530933500
 700.50    0.7533640330
 700.75    0.7536346400
 701.00    0.7539051700
 701.25    0.7543993790
 701.50    0.7548937430
 701.75    0.7553882610
 702.00    0.7558829330
 702.25    0.7562649980
 702.50    0.7566470300
 702.75    0.7570290300
 703.00    0.7574109980
 703.25    0.7574731610
 703.50    0.7575351610
 703.75    0.7575969960
 704.00    0.7576586660
 704.25    0.7578638430
 704.50    0.7580689570
 704.75    0.7582740100
 705.00    0.7584790010
 705.25    0.7586445860
 705.50    0.7588101100
 705.75    0.7589755720
 706.00    0.7591409710
 706.25    0.7594692610
 706.50    0.7597975980
 706.75    0.7601259810
 707.00    0.7604544110
 707.25    0.7606997780
 707.50    0.7609451750
 707.75    0.7611906010
 708.00    0.7614360560
 708.25    0.7615796110
 708.50    0.7617231650
 708.75    0.7618667200
 709.00    0.7620102750
 709.25    0.7621085520
 709.50    0.7622067800
 709.75    0.7623049610
 710.00    0.7624030930
 710.25    0.7624815090
 710.50    0.7625599010
 710.75    0.7626382680
 711.00    0.7627166090
 711.25    0.7627691230
 711.50    0.7628216250
 711.75    0.7628741140
 712.00    0.7629265910
 712.25    0.7629609410
 712.50    0.7629952850
 712.75    0.7630296240
 713.00    0.7630639580
 713.25    0.7630427800
 713.50    0.7630215890
 713.75    0.7630003830
 714.00    0.7629791640
 714.25    0.7630987190
 714.50    0.7632182830
 714.75    0.7633378560
 715.00    0.7634574380
 715.25    0.7635055580
 715.50    0.7635536510
 715.75    0.7636017150
 716.00    0.7636497520
 716.25    0.7636325310
 716.50    0.7636152940
 716.75    0.7635980410
 717.00    0.7635807720
 717.25    0.7636992100
 717.50    0.7638176570
 717.75    0.7639361130
 718.00    0.7640545780
 718.25    0.7640194220
 718.50    0.7639842660
 718.75    0.7639491100
 719.00    0.7639139540
 719.25    0.7637327940
 719.50    0.7635515620
 719.75    0.7633702590
 720.00    0.7631888840
 720.25    0.7634633100
 720.50    0.7637377860
 720.75    0.7640123110
 721.00    0.7642868850
 721.25    0.7643376400
 721.50    0.7643883920
 721.75    0.7644391400
 722.00    0.7644898840
 722.25    0.7646590480
 722.50    0.7648282180
 722.75    0.7649973940
 723.00    0.7651665770
 723.25    0.7649202350
 723.50    0.7646738740
 723.75    0.7644274950
 724.00    0.7641810970
 724.25    0.7643831840
 724.50    0.7645852960
 724.75    0.7647874320
 725.00    0.7649895920
 725.25    0.7648315640
 725.50    0.7646734200
 725.75    0.7645151630
 726.00    0.7643567910
 726.25    0.7645124460
 726.50    0.7646681140
 726.75    0.7648237950
 727.00    0.7649794890
 727.25    0.7652508860
 727.50    0.7655223300
 727.75    0.7657938210
 728.00    0.7660653600
 728.25    0.7660521710
 728.50    0.7660389780
 728.75    0.7660257790
 729.00    0.7660125740
 729.25    0.7661398810
 729.50    0.7662671970
 729.75    0.7663945190
 730.00    0.7665218500
 730.25    0.7664155100
 730.50    0.7663091050
 730.75    0.7662026370
 731.00    0.7660961050
 731.25    0.7661480290
 731.50    0.7661999480
 731.75    0.7662518620
 732.00    0.7663037710
 732.25    0.7661628040
 732.50    0.7660218360
 732.75    0.7658808670
 733.00    0.7657398980
 733.25    0.7656714200
 733.50    0.7656029330
 733.75    0.7655344360
 734.00    0.7654659300
 734.25    0.7653564330
 734.50    0.7652469390
 734.75    0.7651374500
 735.00    0.7650279660
 735.25    0.7650796700
 735.50    0.7651313760
 735.75    0.7651830840
 736.00    0.7652347930
 736.25    0.7651544440
 736.50    0.7650740970
 736.75    0.7649937540
 737.00    0.7649134120
 737.25    0.7646410220
 737.50    0.7643686450
 737.75    0.7640962810
 738.00    0.7638239290
 738.25    0.7635347560
 738.50    0.7632456180
 738.75    0.7629565150
 739.00    0.7626674470
 739.25    0.7624318190
 739.50    0.7621962260
 739.75    0.7619606690
 740.00    0.7617251450
 740.25    0.7616120540
 740.50    0.7614989700
 740.75    0.7613858940
 741.00    0.7612728260
 741.25    0.7610540700
 741.50    0.7608353440
 741.75    0.7606166500
 742.00    0.7603979870
 742.25    0.7601156370
 742.50    0.7598333220
 742.75    0.7595510440
 743.00    0.7592688010
 743.25    0.7590908960
 743.50    0.7589130120
 743.75    0.7587351480
 744.00    0.7585573050
 744.25    0.7582127600
 744.50    0.7578682710
 744.75    0.7575238380
 745.00    0.7571794620
 745.25    0.7570251470
 745.50    0.7568708470
 745.75    0.7567165620
 746.00    0.7565622930
 746.25    0.7563498390
 746.50    0.7561374010
 746.75    0.7559249790
 747.00    0.7557125730
 747.25    0.7553719190
 747.50    0.7550312440
 747.75    0.7546905490
 748.00    0.7543498340
 748.25    0.7541125640
 748.50    0.7538753210
 748.75    0.7536381050
 749.00    0.7534009160
 749.25    0.7532425650
 749.50    0.7530842240
 749.75    0.7529258930
 750.00    0.7527675730
 750.25    0.7524331930
 750.50    0.7520988570
 750.75    0.7517645640
 751.00    0.7514303140
 751.25    0.7511501980
 751.50    0.7508700740
 751.75    0.7505899410
 752.00    0.7503098010
 752.25    0.7502906680
 752.50    0.7502715300
 752.75    0.7502523890
 753.00    0.7502332420
 753.25    0.7500616550
 753.50    0.7498900520
 753.75    0.7497184330
 754.00    0.7495467990
 754.25    0.7492721360
 754.50    0.7489973070
 754.75    0.7487223090
 755.00    0.7484471440
 755.25    0.7482933990
 755.50    0.7481396240
 755.75    0.7479858190
 756.00    0.7478319840
 756.25    0.7476008270
 756.50    0.7473696420
 756.75    0.7471384270
 757.00    0.7469071840
 757.25    0.7467317520
 757.50    0.7465563010
 757.75    0.7463808320
 758.00    0.7462053440
 758.25    0.7460104070
 758.50    0.7458153880
 758.75    0.7456202870
 759.00    0.7454251030
 759.25    0.7454239350
 759.50    0.7454227510
 759.75    0.7454215530
 760.00    0.7454203390
 760.25    0.7451924070
 760.50    0.7449644240
 760.75    0.7447363910
 761.00    0.7445083070
 761.25    0.7441991850
 761.50    0.7438899620
 761.75    0.7435806400
 762.00    0.7432712180
 762.25    0.7430095370
 762.50    0.7427478340
 762.75    0.7424861070
 763.00    0.7422243560
 763.25    0.7419389210
 763.50    0.7416533790
 763.75    0.7413677300
 764.00    0.7410819740
 764.25    0.7408233230
 764.50    0.7405646360
 764.75    0.7403059130
 765.00    0.7400471530
 765.25    0.7397846190
 765.50    0.7395220620
 765.75    0.7392594820
 766.00    0.7389968780
 766.25    0.7388080870
 766.50    0.7386193080
 766.75    0.7384305410
 767.00    0.7382417860
 767.25    0.7376687000
 767.50    0.7370956690
 767.75    0.7365226910
 768.00    0.7359497670
 768.25    0.7358670680
 768.50    0.7357843480
 768.75    0.7357016080
 769.00    0.7356188460
 769.25    0.7352937070
 769.50    0.7349685650
 769.75    0.7346434200
 770.00    0.7343182730
 770.25    0.7337410940
 770.50    0.7331640460
 770.75    0.7325871290
 771.00    0.7320103420
 771.25    0.7316779440
 771.50    0.7313455490
 771.75    0.7310131580
 772.00    0.7306807710
 772.25    0.7303769930
 772.50    0.7300731700
 772.75    0.7297693040
 773.00    0.7294653940
 773.25    0.7288734090
 773.50    0.7282814960
 773.75    0.7276896570
 774.00    0.7270978900
 774.25    0.7266367080
 774.50    0.7261756360
 774.75    0.7257146740
 775.00    0.7252538230
 775.25    0.7248558210
 775.50    0.7244578490
 775.75    0.7240599080
 776.00    0.7236619960
 776.25    0.7233948940
 776.50    0.7231278340
 776.75    0.7228608160
 777.00    0.7225938390
 777.25    0.7220435150
 777.50    0.7214932540
 777.75    0.7209430560
 778.00    0.7203929220
 778.25    0.7197348480
 778.50    0.7190769340
 778.75    0.7184191820
 779.00    0.7177615900
 779.25    0.7175057080
 779.50    0.7172498690
 779.75    0.7169940750
 780.00    0.7167383240
 780.25    0.7162340740
 780.50    0.7157299540
 780.75    0.7152259660
 781.00    0.7147221080
 781.25    0.7140681350
 781.50    0.7134141670
 781.75    0.7127602050
 782.00    0.7121062490
 782.25    0.7116610820
 782.50    0.7112159350
 782.75    0.7107708070
 783.00    0.7103257000
 783.25    0.7100202960
 783.50    0.7097149520
 783.75    0.7094096690
 784.00    0.7091044470
 784.25    0.7087085030
 784.50    0.7083126130
 784.75    0.7079167770
 785.00    0.7075209940
 785.25    0.7069183180
 785.50    0.7063158360
 785.75    0.7057135480
 786.00    0.7051114550
 786.25    0.7046878910
 786.50    0.7042643580
 786.75    0.7038408560
 787.00    0.7034173850
 787.25    0.7027951500
 787.50    0.7021731150
 787.75    0.7015512810
 788.00    0.7009296480
 788.25    0.7003935740
 788.50    0.6998575990
 788.75    0.6993217230
 789.00    0.6987859460
 789.25    0.6984176980
 789.50    0.6980494370
 789.75    0.6976811610
 790.00    0.6973128720
 790.25    0.6968566310
 790.50    0.6964004420
 790.75    0.6959443050
 791.00    0.6954882200
 791.25    0.6949020840
 791.50    0.6943160050
 791.75    0.6937299830
 792.00    0.6931440190
 792.25    0.6926387660
 792.50    0.6921335870
 792.75    0.6916284800
 793.00    0.6911234470
 793.25    0.6907174170
 793.50    0.6903113930
 793.75    0.6899053760
 794.00    0.6894993640
 794.25    0.6890725700
 794.50    0.6886458870
 794.75    0.6882193140
 795.00    0.6877928510
 795.25    0.6873461470
 795.50    0.6868993620
 795.75    0.6864524960
 796.00    0.6860055490
 796.25    0.6855669800
 796.50    0.6851284220
 796.75    0.6846898760
 797.00    0.6842513410
 797.25    0.6837378440
 797.50    0.6832242580
 797.75    0.6827105820
 798.00    0.6821968160
 798.25    0.6820423630
 798.50    0.6818877180
 798.75    0.6817328830
 799.00    0.6815778570
 799.25    0.6811119730
 799.50    0.6806461190
 799.75    0.6801802940
 800.00    0.6797144990
 800.25    0.6793665810
 800.50    0.6790186140
 800.75    0.6786706000
 801.00    0.6783225370
 801.25    0.6779274020
 801.50    0.6775320130
 801.75    0.6771363700
 802.00    0.6767404740
 802.25    0.6762820910
 802.50    0.6758235350
 802.75    0.6753648050
 803.00    0.6749059000
 803.25    0.6745008800
 803.50    0.6740958430
 803.75    0.6736907900
 804.00    0.6732857210
 804.25    0.6730761870
 804.50    0.6728664810
 804.75    0.6726566050
 805.00    0.6724465580
 805.25    0.6722282150
 805.50    0.6720097910
 805.75    0.6717912860
 806.00    0.6715727000
 806.25    0.6710944530
 806.50    0.6706161230
 806.75    0.6701377110
 807.00    0.6696592160
 807.25    0.6695166030
 807.50    0.6693738380
 807.75    0.6692309220
 808.00    0.6690878540
 808.25    0.6688563100
 808.50    0.6686242770
 808.75    0.6683917540
 809.00    0.6681587420
 809.25    0.6677945880
 809.50    0.6674304520
 809.75    0.6670663350
 810.00    0.6667022370
 810.25    0.6664320540
 810.50    0.6661615460
 810.75    0.6658907120
 811.00    0.6656195520
 811.25    0.6653945750
 811.50    0.6651694860
 811.75    0.6649442840
 812.00    0.6647189690
 812.25    0.6640799290
 812.50    0.6634407350
 812.75    0.6628013870
 813.00    0.6621618860
 813.25    0.6616731650
 813.50    0.6611842790
 813.75    0.6606952290
 814.00    0.6602060130
 814.25    0.6599970980
 814.50    0.6597880560
 814.75    0.6595788880
 815.00    0.6593695920
 815.25    0.6591301910
 815.50    0.6588906940
 815.75    0.6586511010
 816.00    0.6584114130
 816.25    0.6581197480
 816.50    0.6578278730
 816.75    0.6575357870
 817.00    0.6572434920
 817.25    0.6565889240
 817.50    0.6559344270
 817.75    0.6552800010
 818.00    0.6546256460
 818.25    0.6542285810
 818.50    0.6538313260
 818.75    0.6534338820
 819.00    0.6530362490
 819.25    0.6527474350
 819.50    0.6524585280
 819.75    0.6521695260
 820.00    0.6518804310
 820.25    0.6511880910
 820.50    0.6504958960
 820.75    0.6498038460
 821.00    0.6491119390
 821.25    0.6485791510
 821.50    0.6480462280
 821.75    0.6475131700
 822.00    0.6469799770
 822.25    0.6463567530
 822.50    0.6457336570
 822.75    0.6451106900
 823.00    0.6444878510
 823.25    0.6438402060
 823.50    0.6431926300
 823.75    0.6425451230
 824.00    0.6418976850
 824.25    0.6415956020
 824.50    0.6412935280
 824.75    0.6409914640
 825.00    0.6406894090
 825.25    0.6400507180
 825.50    0.6394121660
 825.75    0.6387737540
 826.00    0.6381354820
 826.25    0.6375944090
 826.50    0.6370534650
 826.75    0.6365126500
 827.00    0.6359719640
 827.25    0.6354734620
 827.50    0.6349750030
 827.75    0.6344765870
 828.00    0.6339782150
 828.25    0.6334464300
 828.50    0.6329147750
 828.75    0.6323832470
 829.00    0.6318518480
 829.25    0.6312442670
 829.50    0.6306367620
 829.75    0.6300293330
 830.00    0.6294219780
 830.25    0.6287870220
 830.50    0.6281521960
 830.75    0.6275175010
 831.00    0.6268829350
 831.25    0.6263672940
 831.50    0.6258517980
 831.75    0.6253364460
 832.00    0.6248212400
 832.25    0.6241061860
 832.50    0.6233913550
 832.75    0.6226767460
 833.00    0.6219623600
 833.25    0.6212712420
 833.50    0.6205801180
 833.75    0.6198889880
 834.00    0.6191978520
 834.25    0.6186427120
 834.50    0.6180875770
 834.75    0.6175324470
 835.00    0.6169773220
 835.25    0.6162215590
 835.50    0.6154659760
 835.75    0.6147105740
 836.00    0.6139553520
 836.25    0.6139379180
 836.50    0.6139203850
 836.75    0.6139027510
 837.00    0.6138850170
 837.25    0.6131052830
 837.50    0.6123257290
 837.75    0.6115463560
 838.00    0.6107671640
 838.25    0.6102696760
 838.50    0.6097717060
 838.75    0.6092732540
 839.00    0.6087743210
 839.25    0.6079140930
 839.50    0.6070542670
 839.75    0.6061948440
 840.00    0.6053358230
 840.25    0.6047774100
 840.50    0.6042187500
 840.75    0.6036598440
 841.00    0.6031006920
 841.25    0.6027540750
 841.50    0.6024070300
 841.75    0.6020595570
 842.00    0.6017116550
 842.25    0.6008439730
 842.50    0.5999764400
 842.75    0.5991090570
 843.00    0.5982418230
 843.25    0.5974749170
 843.50    0.5967069530
 843.75    0.5959379310
 844.00    0.5951678520
 844.25    0.5949324370
 844.50    0.5946967690
 844.75    0.5944608470
 845.00    0.5942246700
 845.25    0.5939180020
 845.50    0.5936106420
 845.75    0.5933025920
 846.00    0.5929938500
 846.25    0.5926321050
 846.50    0.5922699580
 846.75    0.5919074080
 847.00    0.5915444550
 847.25    0.5912437890
 847.50    0.5909424430
 847.75    0.5906404170
 848.00    0.5903377110
 848.25    0.5865329220
 848.50    0.5827369440
 848.75    0.5789497780
 849.00    0.5751714240
 849.25    0.5751769730
 849.50    0.5751821300
 849.75    0.5751868940
 850.00    0.5751912670
 850.25    0.5746050140
 850.50    0.5740175100
 850.75    0.5734287540
 851.00    0.5728387470
 851.25    0.5722184350
 851.50    0.5715978300
 851.75    0.5709769320
 852.00    0.5703557410
 852.25    0.5700738020
 852.50    0.5697914050
 852.75    0.5695085490
 853.00    0.5692252340
 853.25    0.5683762520
 853.50    0.5675267990
 853.75    0.5666768760
 854.00    0.5658264830
 854.25    0.5655321830
 854.50    0.5652370880
 854.75    0.5649411970
 855.00    0.5646445100
 855.25    0.5639074180
 855.50    0.5631697250
 855.75    0.5624314300
 856.00    0.5616925330
 856.25    0.5610522330
 856.50    0.5604112330
 856.75    0.5597695330
 857.00    0.5591271340
 857.25    0.5588104980
 857.50    0.5584934750
 857.75    0.5581760640
 858.00    0.5578582670
 858.25    0.5571812310
 858.50    0.5565038440
 858.75    0.5558261060
 859.00    0.5551480180
 859.25    0.5545175970
 859.50    0.5538864210
 859.75    0.5532544910
 860.00    0.5526218060
 860.25    0.5520446710
 860.50    0.5514671900
 860.75    0.5508893630
 861.00    0.5503111880
 861.25    0.5492798590
 861.50    0.5482483230
 861.75    0.5472165810
 862.00    0.5461846330
 862.25    0.5456114210
 862.50    0.5450376430
 862.75    0.5444632990
 863.00    0.5438883910
 863.25    0.5431491110
 863.50    0.5424095970
 863.75    0.5416698470
 864.00    0.5409298620
 864.25    0.5402954690
 864.50    0.5396610640
 864.75    0.5390266490
 865.00    0.5383922220
 865.25    0.5374618790
 865.50    0.5365313260
 865.75    0.5356005630
 866.00    0.5346695900
 866.25    0.5340573580
 866.50    0.5334448480
 866.75    0.5328320590
 867.00    0.5322189900
 867.25    0.5318781000
 867.50    0.5315372570
 867.75    0.5311964620
 868.00    0.5308557140
 868.25    0.5298196650
 868.50    0.5287832850
 868.75    0.5277465730
 869.00    0.5267095310
 869.25    0.5255720580
 869.50    0.5244344060
 869.75    0.5232965740
 870.00    0.5221585620
 870.25    0.5214869160
 870.50    0.5208154580
 870.75    0.5201441900
 871.00    0.5194731110
 871.25    0.5185788190
 871.50    0.5176847310
 871.75    0.5167908490
 872.00    0.5158971720
 872.25    0.5144937120
 872.50    0.5130901950
 872.75    0.5116866220
 873.00    0.5102829910
 873.25    0.5096331820
 873.50    0.5089835170
 873.75    0.5083339970
 874.00    0.5076846220
 874.25    0.5067679950
 874.50    0.5058514060
 874.75    0.5049348530
 875.00    0.5040183370
 875.25    0.5030491310
 875.50    0.5020800830
 875.75    0.5011111930
 876.00    0.5001424590
 876.25    0.4993890130
 876.50    0.4986358180
 876.75    0.4978828760
 877.00    0.4971301870
 877.25    0.4959603790
 877.50    0.4947904930
 877.75    0.4936205280
 878.00    0.4924504840
 878.25    0.4919476440
 878.50    0.4914449240
 878.75    0.4909423240
 879.00    0.4904398440
 879.25    0.4894718790
 879.50    0.4885042600
 879.75    0.4875369880
 880.00    0.4865700610
 880.25    0.4853664330
 880.50    0.4841627720
 880.75    0.4829590800
 881.00    0.4817553550
 881.25    0.4810751770
 881.50    0.4803950280
 881.75    0.4797149090
 882.00    0.4790348200
 882.25    0.4779373220
 882.50    0.4768396540
 882.75    0.4757418170
 883.00    0.4746438110
 883.25    0.4738305990
 883.50    0.4730177350
 883.75    0.4722052200
 884.00    0.4713930530
 884.25    0.4707561670
 884.50    0.4701191100
 884.75    0.4694818830
 885.00    0.4688444860
 885.25    0.4677262740
 885.50    0.4666077270
 885.75    0.4654888430
 886.00    0.4643696240
 886.25    0.4637184810
 886.50    0.4630675010
 886.75    0.4624166830
 887.00    0.4617660280
 887.25    0.4607621800
 887.50    0.4597580850
 887.75    0.4587537410
 888.00    0.4577491500
 888.25    0.4568716570
 888.50    0.4559939510
 888.75    0.4551160290
 889.00    0.4542378920
 889.25    0.4537539190
 889.50    0.4532699560
 889.75    0.4527860040
 890.00    0.4523020630
 890.25    0.4513386990
 890.50    0.4503752380
 890.75    0.4494116790
 891.00    0.4484480220
 891.25    0.4478706720
 891.50    0.4472931770
 891.75    0.4467155390
 892.00    0.4461377580
 892.25    0.4456221650
 892.50    0.4451064630
 892.75    0.4445906540
 893.00    0.4440747360
 893.25    0.4428978360
 893.50    0.4417209180
 893.75    0.4405439820
 894.00    0.4393670280
 894.25    0.4389280040
 894.50    0.4384887370
 894.75    0.4380492270
 895.00    0.4376094750
 895.25    0.4368079790
 895.50    0.4360064000
 895.75    0.4352047360
 896.00    0.4344029880
 896.25    0.4333132530
 896.50    0.4322232340
 896.75    0.4311329310
 897.00    0.4300423450
 897.25    0.4294542670
 897.50    0.4288660340
 897.75    0.4282776480
 898.00    0.4276891070
 898.25    0.4270473940
 898.50    0.4264056150
 898.75    0.4257637700
 899.00    0.4251218600
 899.25    0.4242484400
 899.50    0.4233749120
 899.75    0.4225012760
 900.00    0.4216275320
 900.25    0.4209272990
 900.50    0.4202267920
 900.75    0.4195260120
 901.00    0.4188249580
 901.25    0.4181231410
 901.50    0.4174212410
 901.75    0.4167192560
 902.00    0.4160171880
 902.25    0.4152203070
 902.50    0.4144232470
 902.75    0.4136260090
 903.00    0.4128285920
 903.25    0.4120195300
 903.50    0.4112102920
 903.75    0.4104008770
 904.00    0.4095912860
 904.25    0.4089084510
 904.50    0.4082255740
 904.75    0.4075426550
 905.00    0.4068596930
 905.25    0.4059008670
 905.50    0.4049420530
 905.75    0.4039832500
 906.00    0.4030244580
 906.25    0.4025028710
 906.50    0.4019812560
 906.75    0.4014596120
 907.00    0.4009379390
 907.25    0.4004012210
 907.50    0.3998644410
 907.75    0.3993275990
 908.00    0.3987906950
 908.25    0.3977622010
 908.50    0.3967334480
 908.75    0.3957044360
 909.00    0.3946751650
 909.25    0.3941189830
 909.50    0.3935629540
 909.75    0.3930070790
 910.00    0.3924513570
 910.25    0.3919396390
 910.50    0.3914278300
 910.75    0.3909159300
 911.00    0.3904039400
 911.25    0.3895011410
 911.50    0.3885984690
 911.75    0.3876959240
 912.00    0.3867935050
 912.25    0.3864403570
 912.50    0.3860871960
 912.75    0.3857340220
 913.00    0.3853808350
 913.25    0.3844912700
 913.50    0.3836017100
 913.75    0.3827121550
 914.00    0.3818226050
 914.25    0.3809019270
 914.50    0.3799813210
 914.75    0.3790607870
 915.00    0.3781403250
 915.25    0.3777894700
 915.50    0.3774386960
 915.75    0.3770880020
 916.00    0.3767373890
 916.25    0.3756663520
 916.50    0.3745952960
 916.75    0.3735242210
 917.00    0.3724531270
 917.25    0.3717063440
 917.50    0.3709596930
 917.75    0.3702131730
 918.00    0.3694667850
 918.25    0.3692118800
 918.50    0.3689569890
 918.75    0.3687021120
 919.00    0.3684472480
 919.25    0.3672657700
 919.50    0.3660842950
 919.75    0.3649028250
 920.00    0.3637213580
 920.25    0.3630619080
 920.50    0.3624026110
 920.75    0.3617434680
 921.00    0.3610844770
 921.25    0.3607641770
 921.50    0.3604438810
 921.75    0.3601235890
 922.00    0.3598033020
 922.25    0.3586288620
 922.50    0.3574546900
 922.75    0.3562807860
 923.00    0.3551071500
 923.25    0.3545676130
 923.50    0.3540281780
 923.75    0.3534888430
 924.00    0.3529496100
 924.25    0.3524023300
 924.50    0.3518550120
 924.75    0.3513076560
 925.00    0.3507602610
 925.25    0.3497388140
 925.50    0.3487174090
 925.75    0.3476960470
 926.00    0.3466747260
 926.25    0.3462529070
 926.50    0.3458311130
 926.75    0.3454093440
 927.00    0.3449876000
 927.25    0.3443626330
 927.50    0.3437376370
 927.75    0.3431126110
 928.00    0.3424875570
 928.25    0.3415088150
 928.50    0.3405301190
 928.75    0.3395514670
 929.00    0.3385728600
 929.25    0.3380500760
 929.50    0.3375273060
 929.75    0.3370045520
 930.00    0.3364818130
 930.25    0.3358118100
 930.50    0.3351418170
 930.75    0.3344718340
 931.00    0.3338018630
 931.25    0.3329154070
 931.50    0.3320289310
 931.75    0.3311424340
 932.00    0.3302559160
 932.25    0.3296391390
 932.50    0.3290223170
 932.75    0.3284054520
 933.00    0.3277885430
 933.25    0.3270627630
 933.50    0.3263369720
 933.75    0.3256111690
 934.00    0.3248853550
 934.25    0.3242029730
 934.50    0.3235206470
 934.75    0.3228383780
 935.00    0.3221561660
 935.25    0.3214132980
 935.50    0.3206703390
 935.75    0.3199272880
 936.00    0.3191841460
 936.25    0.3183951910
 936.50    0.3176063430
 936.75    0.3168176020
 937.00    0.3160289670
 937.25    0.3153910250
 937.50    0.3147531410
 937.75    0.3141153150
 938.00    0.3134775470
 938.25    0.3124665990
 938.50    0.3114557430
 938.75    0.3104449770
 939.00    0.3094343030
 939.25    0.3086938700
 939.50    0.3079533880
 939.75    0.3072128590
 940.00    0.3064722810
 940.25    0.3058199260
 940.50    0.3051676860
 940.75    0.3045155620
 941.00    0.3038635550
 941.25    0.3027375150
 941.50    0.3016113900
 941.75    0.3004851800
 942.00    0.2993588850
 942.25    0.2987458530
 942.50    0.2981328350
 942.75    0.2975198310
 943.00    0.2969068410
 943.25    0.2964498650
 943.50    0.2959927240
 943.75    0.2955354190
 944.00    0.2950779510
 944.25    0.2938626050
 944.50    0.2926470560
 944.75    0.2914313060
 945.00    0.2902153540
 945.25    0.2895312890
 945.50    0.2888470030
 945.75    0.2881624970
 946.00    0.2874777710
 946.25    0.2869873420
 946.50    0.2864967660
 946.75    0.2860060420
 947.00    0.2855151710
 947.25    0.2842887480
 947.50    0.2830620210
 947.75    0.2818349890
 948.00    0.2806076530
 948.25    0.2798772000
 948.50    0.2791465340
 948.75    0.2784156540
 949.00    0.2776845610
 949.25    0.2772211640
 949.50    0.2767575890
 949.75    0.2762938370
 950.00    0.2758299080
 950.25    0.2747669940
 950.50    0.2737038160
 950.75    0.2726403740
 951.00    0.2715766680
 951.25    0.2706065900
 951.50    0.2696362960
 951.75    0.2686657850
 952.00    0.2676950570
 952.25    0.2670129730
 952.50    0.2663306670
 952.75    0.2656481410
 953.00    0.2649653930
 953.25    0.2638177750
 953.50    0.2626700000
 953.75    0.2615220670
 954.00    0.2603739780
 954.25    0.2594533900
 954.50    0.2585325470
 954.75    0.2576114500
 955.00    0.2566900980
 955.25    0.2560384620
 955.50    0.2553867730
 955.75    0.2547350310
 956.00    0.2540832350
 956.25    0.2530293250
 956.50    0.2519752480
 956.75    0.2509210050
 957.00    0.2498665950
 957.25    0.2489148390
 957.50    0.2479629260
 957.75    0.2470108560
 958.00    0.2460586290
 958.25    0.2451292710
 958.50    0.2441998240
 958.75    0.2432702900
 959.00    0.2423406680
 959.25    0.2413143740
 959.50    0.2402880430
 959.75    0.2392616750
 960.00    0.2382352710
 960.25    0.2373333240
 960.50    0.2364313820
 960.75    0.2355294450
 961.00    0.2346275130
 961.25    0.2335399550
 961.50    0.2324524010
 961.75    0.2313648510
 962.00    0.2302773060
 962.25    0.2292122710
 962.50    0.2281472160
 962.75    0.2270821410
 963.00    0.2260170450
 963.25    0.2252079170
 963.50    0.2243988040
 963.75    0.2235897040
 964.00    0.2227806170
 964.25    0.2215711770
 964.50    0.2203618470
 964.75    0.2191526300
 965.00    0.2179435240
 965.25    0.2168642490
 965.50    0.2157848700
 965.75    0.2147053880
 966.00    0.2136258020
 966.25    0.2128711790
 966.50    0.2121166170
 966.75    0.2113621170
 967.00    0.2106076790
 967.25    0.2093810620
 967.50    0.2081545010
 967.75    0.2069279960
 968.00    0.2057015480
 968.25    0.2045658450
 968.50    0.2034302790
 968.75    0.2022948490
 969.00    0.2011595550
 969.25    0.2004447520
 969.50    0.1997299620
 969.75    0.1990151850
 970.00    0.1983004220
 970.25    0.1971198980
 970.50    0.1959395140
 970.75    0.1947592690
 971.00    0.1935791650
 971.25    0.1923978310
 971.50    0.1912164600
 971.75    0.1900350520
 972.00    0.1888536060
 972.25    0.1881785250
 972.50    0.1875034640
 972.75    0.1868284240
 973.00    0.1861534040
 973.25    0.1850558170
 973.50    0.1839582440
 973.75    0.1828606850
 974.00    0.1817631400
 974.25    0.1804450960
 974.50    0.1791272210
 974.75    0.1778095120
 975.00    0.1764919720
 975.25    0.1757969520
 975.50    0.1751019280
 975.75    0.1744068990
 976.00    0.1737118650
 976.25    0.1727738980
 976.50    0.1718359130
 976.75    0.1708979090
 977.00    0.1699598870
 977.25    0.1686110320
 977.50    0.1672621970
 977.75    0.1659133810
 978.00    0.1645645850
 978.25    0.1637430730
 978.50    0.1629215770
 978.75    0.1621000980
 979.00    0.1612786360
 979.25    0.1604880010
 979.50    0.1596973790
 979.75    0.1589067690
 980.00    0.1581161730
 980.25    0.1568589630
 980.50    0.1556016640
 980.75    0.1543442760
 981.00    0.1530867980
 981.25    0.1521260250
 981.50    0.1511651880
 981.75    0.1502042880
 982.00    0.1492433260
 982.25    0.1485820680
 982.50    0.1479208280
 982.75    0.1472596060
 983.00    0.1465984020
 983.25    0.1454897570
 983.50    0.1443810300
 983.75    0.1432722210
 984.00    0.1421633300
 984.25    0.1409719610
 984.50    0.1397806220
 984.75    0.1385893130
 985.00    0.1373980340
 985.25    0.1367683980
 985.50    0.1361387370
 985.75    0.1355090510
 986.00    0.1348793400
 986.25    0.1339538750
 986.50    0.1330283450
 986.75    0.1321027500
 987.00    0.1311770890
 987.25    0.1300496530
 987.50    0.1289221420
 987.75    0.1277945550
 988.00    0.1266668910
 988.25    0.1259032900
 988.50    0.1251396570
 988.75    0.1243759950
 989.00    0.1236123020
 989.25    0.1228831210
 989.50    0.1221538190
 989.75    0.1214243960
 990.00    0.1206948510
 990.25    0.1196762630
 990.50    0.1186576180
 990.75    0.1176389160
 991.00    0.1166201560
 991.25    0.1156939940
 991.50    0.1147677700
 991.75    0.1138414840
 992.00    0.1129151350
 992.25    0.1122843810
 992.50    0.1116535720
 992.75    0.1110227080
 993.00    0.1103917900
 993.25    0.1094886980
 993.50    0.1085855330
 993.75    0.1076822970
 994.00    0.1067789870
 994.25    0.1058522740
 994.50    0.1049254620
 994.75    0.1039985490
 995.00    0.1030715370
 995.25    0.1024882380
 995.50    0.1019049290
 995.75    0.1013216090
 996.00    0.1007382780
 996.25    0.0999568252
 996.50    0.0991753287
 996.75    0.0983937882
 997.00    0.0976122037
 997.25    0.0967559357
 997.50    0.0958996517
 997.75    0.0950433517
 998.00    0.0941870357
 998.25    0.0935427795
 998.50    0.0928984899
 998.75    0.0922541668
 999.00    0.0916098103
 999.25    0.0909042535
 999.50    0.0901986276
 999.75    0.0894929325
1000.00    0.0887871681
1000.25    0.0880146675
1000.50    0.0872421674
1000.75    0.0864696677
1001.00    0.0856971684
1001.25    0.0851122193
1001.50    0.0845272623
1001.75    0.0839422975
1002.00    0.0833573250
1002.25    0.0827115070
1002.50    0.0820656648
1002.75    0.0814197984
1003.00    0.0807739079
1003.25    0.0800524067
1003.50    0.0793308982
1003.75    0.0786093824
1004.00    0.0778878592
1004.25    0.0773397976
1004.50    0.0767917454
1004.75    0.0762437026
1005.00    0.0756956693
1005.25    0.0751817435
1005.50    0.0746678086
1005.75    0.0741538649
1006.00    0.0736399122
1006.25    0.0729363384
1006.50    0.0722328071
1006.75    0.0715293183
1007.00    0.0708258719
1007.25    0.0702588398
1007.50    0.0696917794
1007.75    0.0691246909
1008.00    0.0685575742
1008.25    0.0681799599
1008.50    0.0678023533
1008.75    0.0674247541
1009.00    0.0670471626
1009.25    0.0664016278
1009.50    0.0657561107
1009.75    0.0651106112
1010.00    0.0644651292
1010.25    0.0638690077
1010.50    0.0632729187
1010.75    0.0626768622
1011.00    0.0620808384
1011.25    0.0617592208
1011.50    0.0614376076
1011.75    0.0611159989
1012.00    0.0607943946
1012.25    0.0602929653
1012.50    0.0597915449
1012.75    0.0592901335
1013.00    0.0587887311
1013.25    0.0581780129
1013.50    0.0575673082
1013.75    0.0569566169
1014.00    0.0563459390
1014.25    0.0559650895
1014.50    0.0555842511
1014.75    0.0552034240
1015.00    0.0548226080
1015.25    0.0544815039
1015.50    0.0541404254
1015.75    0.0537993725
1016.00    0.0534583452
1016.25    0.0528659163
1016.50    0.0522735166
1016.75    0.0516811460
1017.00    0.0510888045
1017.25    0.0506408018
1017.50    0.0501928305
1017.75    0.0497448906
1018.00    0.0492969820
1018.25    0.0490517851
1018.50    0.0488065833
1018.75    0.0485613766
1019.00    0.0483161650
1019.25    0.0478731389
1019.50    0.0474301287
1019.75    0.0469871345
1020.00    0.0465441561
1020.25    0.0460208980
1020.50    0.0454976432
1020.75    0.0449743916
1021.00    0.0444511432
1021.25    0.0441693273
1021.50    0.0438875383
1021.75    0.0436057760
1022.00    0.0433240405
1022.25    0.0430058934
1022.50    0.0426877361
1022.75    0.0423695686
1023.00    0.0420513911
1023.25    0.0415710069
1023.50    0.0410906450
1023.75    0.0406103053
1024.00    0.0401299879
1024.25    0.0397196917
1024.50    0.0393093928
1024.75    0.0388990910
1025.00    0.0384887864
1025.25    0.0382603194
1025.50    0.0380318653
1025.75    0.0378034240
1026.00    0.0375749955
1026.25    0.0371895544
1026.50    0.0368041095
1026.75    0.0364186609
1027.00    0.0360332085
1027.25    0.0355983144
1027.50    0.0351634152
1027.75    0.0347285108
1028.00    0.0342936013
1028.25    0.0340272199
1028.50    0.0337608374
1028.75    0.0334944537
1029.00    0.0332280687
1029.25    0.0329436635
1029.50    0.0326592574
1029.75    0.0323748504
1030.00    0.0320904424
1030.25    0.0316885209
1030.50    0.0312865793
1030.75    0.0308846178
1031.00    0.0304826363
1031.25    0.0301386796
1031.50    0.0297947247
1031.75    0.0294507715
1032.00    0.0291068200
1032.25    0.0288939993
1032.50    0.0286811751
1032.75    0.0284683472
1033.00    0.0282555158
1033.25    0.0279227742
1033.50    0.0275900478
1033.75    0.0272573368
1034.00    0.0269246411
1034.25    0.0265676119
1034.50    0.0262105553
1034.75    0.0258534712
1035.00    0.0254963597
1035.25    0.0252434648
1035.50    0.0249905433
1035.75    0.0247375951
1036.00    0.0244846203
1036.25    0.0242342618
1036.50    0.0239839038
1036.75    0.0237335462
1037.00    0.0234831891
1037.25    0.0231498970
1037.50    0.0228165920
1037.75    0.0224832741
1038.00    0.0221499433
1038.25    0.0218622943
1038.50    0.0215746273
1038.75    0.0212869422
1039.00    0.0209992391
1039.25    0.0208115766
1039.50    0.0206238829
1039.75    0.0204361580
1040.00    0.0202484019
1040.25    0.0199744056
1040.50    0.0197004138
1040.75    0.0194264266
1041.00    0.0191524439
1041.25    0.0188599633
1041.50    0.0185674463
1041.75    0.0182748928
1042.00    0.0179823029
1042.25    0.0177668806
1042.50    0.0175514607
1042.75    0.0173360431
1043.00    0.0171206280
1043.25    0.0169258565
1043.50    0.0167310764
1043.75    0.0165362876
1044.00    0.0163414901
1044.25    0.0160727901
1044.50    0.0158040799
1044.75    0.0155353594
1045.00    0.0152666287
1045.25    0.0150241477
1045.50    0.0147816625
1045.75    0.0145391732
1046.00    0.0142966798
1046.25    0.0141530944
1046.50    0.0140094849
1046.75    0.0138658511
1047.00    0.0137221930
1047.25    0.0135143935
1047.50    0.0133065893
1047.75    0.0130987805
1048.00    0.0128909670
1048.25    0.0126544458
1048.50    0.0124179371
1048.75    0.0121814407
1049.00    0.0119449567
1049.25    0.0117672293
1049.50    0.0115894944
1049.75    0.0114117522
1050.00    0.0112340025
1050.25    0.0111076617
1050.50    0.0109813016
1050.75    0.0108549223
1051.00    0.0107285236
1051.25    0.0105329383
1051.50    0.0103373603
1051.75    0.0101417897
1052.00    0.0099462264
1052.25    0.0097573258
1052.50    0.0095684234
1052.75    0.0093795192
1053.00    0.0091906132
1053.25    0.0090714306
1053.50    0.0089522447
1053.75    0.0088330556
1054.00    0.0087138633
1054.25    0.0085933006
1054.50    0.0084727382
1054.75    0.0083521760
1055.00    0.0082316141
1055.25    0.0080604395
1055.50    0.0078892549
1055.75    0.0077180602
1056.00    0.0075468556
1056.25    0.0074008123
1056.50    0.0072547658
1056.75    0.0071087160
1057.00    0.0069626630
1057.25    0.0068907587
1057.50    0.0068188482
1057.75    0.0067469314
1058.00    0.0066750084
1058.25    0.0065639033
1058.50    0.0064528113
1058.75    0.0063417322
1059.00    0.0062306662
1059.25    0.0060907626
1059.50    0.0059508638
1059.75    0.0058109697
1060.00    0.0056710804
1060.25    0.0055719857
1060.50    0.0054728842
1060.75    0.0053737758
1061.00    0.0052746605
1061.25    0.0052239024
1061.50    0.0051731453
1061.75    0.0051223891
1062.00    0.0050716340
1062.25    0.0049715486
1062.50    0.0048714591
1062.75    0.0047713655
1063.00    0.0046712678
1063.25    0.0045666384
1063.50    0.0044620143
1063.75    0.0043573957
1064.00    0.0042527825
1064.25    0.0041927145
1064.50    0.0041326412
1064.75    0.0040725624
1065.00    0.0040124783
1065.25    0.0039711476
1065.50    0.0039298178
1065.75    0.0038884889
1066.00    0.0038471609
1066.25    0.0037686855
1066.50    0.0036902143
1066.75    0.0036117472
1067.00    0.0035332842
1067.25    0.0034598279
1067.50    0.0033863731
1067.75    0.0033129197
1068.00    0.0032394677
1068.25    0.0032089156
1068.50    0.0031783623
1068.75    0.0031478078
1069.00    0.0031172520
1069.25    0.0030845740
1069.50    0.0030518965
1069.75    0.0030192195
1070.00    0.0029865430
1070.25    0.0029313667
1070.50    0.0028761880
1070.75    0.0028210070
1071.00    0.0027658237
1071.25    0.0027205558
1071.50    0.0026752867
1071.75    0.0026300166
1072.00    0.0025847453
1072.25    0.0025744373
1072.50    0.0025641292
1072.75    0.0025538211
1073.00    0.0025435128
1073.25    0.0025217018
1073.50    0.0024998909
1073.75    0.0024780804
1074.00    0.0024562701
1074.25    0.0024204055
1074.50    0.0023845389
1074.75    0.0023486703
1075.00    0.0023127996
1075.25    0.0022902528
1075.50    0.0022677059
1075.75    0.0022451591
1076.00    0.0022226122
1076.25    0.0022268464
1076.50    0.0022310808
1076.75    0.0022353155
1077.00    0.0022395504
1077.25    0.0022282433
1077.50    0.0022169361
1077.75    0.0022056286
1078.00    0.0021943210
1078.25    0.0021770950
1078.50    0.0021598688
1078.75    0.0021426423
1079.00    0.0021254156
1079.25    0.0021212690
1079.50    0.0021171221
1079.75    0.0021129749
1080.00    0.0021088275
1080.25    0.0021118285
1080.50    0.0021148298
1080.75    0.0021178314
1081.00    0.0021208331
1081.25    0.0021112593
1081.50    0.0021016850
1081.75    0.0020921102
1082.00    0.0020825349
1082.25    0.0020712097
1082.50    0.0020598836
1082.75    0.0020485568
1083.00    0.0020372292
1083.25    0.0020396549
1083.50    0.0020420807
1083.75    0.0020445066
1084.00    0.0020469326
1084.25    0.0020602991
1084.50    0.0020736663
1084.75    0.0020870342
1085.00    0.0021004027
1085.25    0.0021020373
1085.50    0.0021036719
1085.75    0.0021053065
1086.00    0.0021069413
1086.25    0.0021089106
1086.50    0.0021108802
1086.75    0.0021128500
1087.00    0.0021148200
1087.25    0.0021290393
1087.50    0.0021432596
1087.75    0.0021574808
1088.00    0.0021717031
1088.25    0.0021940369
1088.50    0.0022163716
1088.75    0.0022387071
1089.00    0.0022610435
1089.25    0.0022718888
1089.50    0.0022827346
1089.75    0.0022935808
1090.00    0.0023044276
1090.25    0.0023147379
1090.50    0.0023250492
1090.75    0.0023353615
1091.00    0.0023456747
1091.25    0.0023672593
1091.50    0.0023888442
1091.75    0.0024104293
1092.00    0.0024320146
1092.25    0.0024577932
1092.50    0.0024835732
1092.75    0.0025093547
1093.00    0.0025351375
1093.25    0.0025513797
1093.50    0.0025676225
1093.75    0.0025838659
1094.00    0.0026001099
1094.25    0.0026151533
1094.50    0.0026301971
1094.75    0.0026452412
1095.00    0.0026602857
1095.25    0.0026841969
1095.50    0.0027081072
1095.75    0.0027320166
1096.00    0.0027559249
1096.25    0.0027822906
1096.50    0.0028086552
1096.75    0.0028350185
1097.00    0.0028613808
1097.25    0.0028776313
1097.50    0.0028938820
1097.75    0.0029101329
1098.00    0.0029263841
1098.25    0.0029406471
1098.50    0.0029549092
1098.75    0.0029691703
1099.00    0.0029834305
1099.25    0.0000000000
1099.50    0.0000000000
1099.75    0.0000000000
1100.00    0.0000000000
