# file: Y_NISP.Euclid.pb
# instrument: Euclid
# system: AB
# xtype: wavelength
# ytype: qe
# description: Full system QE 
# comment:  based on telescope, dichroic, NI-OA NISP lenses, filter and 
# comment: NISP detector QE from ground based instrument test campaign
# comment: See Euclid Collaboration et al., Euclid preparation. XVIII. 
# comment: The NISP photometric system
# comment: Negative values have been set to zero
# comment: Reference wavelength from the article lambda_cen
# url: https://euclid.esac.esa.int/msp/refdata/nisp/NISP-PHOTO-PASSBANDS-V1
# reference: Euclid Collaboration et al. submitted
# filter: Y_NISP
# xref: 1080.9 nm
# xunit: nm
 905.0    0.000000075
 906.0    0.000000019
 907.0    0.000000135
 908.0    0.000000028
 909.0    0.000000047
 910.0    0.000000049
 911.0    0.000000050
 912.0    0.000000068
 913.0    0.000000084
 914.0    0.000000119
 915.0    0.000000174
 916.0    0.000000241
 917.0    0.000000334
 918.0    0.000000435
 919.0    0.000000661
 920.0    0.000001065
 921.0    0.000001587
 922.0    0.000002303
 923.0    0.000003318
 924.0    0.000004941
 925.0    0.000007282
 926.0    0.000010920
 927.0    0.000016329
 928.0    0.000023799
 929.0    0.000034526
 930.0    0.000049284
 931.0    0.000069551
 932.0    0.000098093
 933.0    0.000140110
 934.0    0.000199542
 935.0    0.000287731
 936.0    0.000405596
 937.0    0.000592317
 938.0    0.000904425
 939.0    0.001576970
 940.0    0.002729330
 941.0    0.006448130
 942.0    0.014201800
 943.0    0.027869100
 944.0    0.044613000
 945.0    0.062471400
 946.0    0.084182100
 947.0    0.125549000
 948.0    0.193227000
 949.0    0.299855000
 950.0    0.434935000
 951.0    0.566382000
 952.0    0.667793000
 953.0    0.723225000
 954.0    0.741707000
 955.0    0.746622000
 956.0    0.747987000
 957.0    0.749365000
 958.0    0.751517000
 959.0    0.753927000
 960.0    0.756886000
 961.0    0.760002000
 962.0    0.763258000
 963.0    0.766446000
 964.0    0.768389000
 965.0    0.769857000
 966.0    0.770874000
 967.0    0.771616000
 968.0    0.772131000
 969.0    0.772461000
 970.0    0.772543000
 971.0    0.772947000
 972.0    0.773082000
 973.0    0.773327000
 974.0    0.773960000
 975.0    0.773684000
 976.0    0.774067000
 977.0    0.773950000
 978.0    0.773894000
 979.0    0.774779000
 980.0    0.774886000
 981.0    0.775136000
 982.0    0.775131000
 983.0    0.775119000
 984.0    0.775758000
 985.0    0.776231000
 986.0    0.776488000
 987.0    0.777149000
 988.0    0.777855000
 989.0    0.778813000
 990.0    0.778811000
 991.0    0.778997000
 992.0    0.778379000
 993.0    0.777911000
 994.0    0.778603000
 995.0    0.778484000
 996.0    0.777051000
 997.0    0.776708000
 998.0    0.777110000
 999.0    0.776720000
1000.0    0.776112000
1001.0    0.776301000
1002.0    0.776007000
1003.0    0.776145000
1004.0    0.777234000
1005.0    0.778669000
1006.0    0.779811000
1007.0    0.781518000
1008.0    0.782929000
1009.0    0.783552000
1010.0    0.783547000
1011.0    0.783330000
1012.0    0.783165000
1013.0    0.782421000
1014.0    0.781319000
1015.0    0.780120000
1016.0    0.779155000
1017.0    0.778263000
1018.0    0.778295000
1019.0    0.777625000
1020.0    0.777871000
1021.0    0.778248000
1022.0    0.778452000
1023.0    0.779305000
1024.0    0.778970000
1025.0    0.778042000
1026.0    0.776404000
1027.0    0.775229000
1028.0    0.774579000
1029.0    0.773478000
1030.0    0.773110000
1031.0    0.772784000
1032.0    0.772656000
1033.0    0.773672000
1034.0    0.775817000
1035.0    0.777118000
1036.0    0.778220000
1037.0    0.779364000
1038.0    0.780670000
1039.0    0.781435000
1040.0    0.781015000
1041.0    0.780059000
1042.0    0.779085000
1043.0    0.778654000
1044.0    0.778452000
1045.0    0.778045000
1046.0    0.777818000
1047.0    0.778774000
1048.0    0.778813000
1049.0    0.779264000
1050.0    0.779323000
1051.0    0.779717000
1052.0    0.779317000
1053.0    0.779303000
1054.0    0.778238000
1055.0    0.776446000
1056.0    0.775385000
1057.0    0.773221000
1058.0    0.771889000
1059.0    0.771390000
1060.0    0.770290000
1061.0    0.769124000
1062.0    0.768974000
1063.0    0.769718000
1064.0    0.770092000
1065.0    0.770434000
1066.0    0.769877000
1067.0    0.770069000
1068.0    0.770332000
1069.0    0.769139000
1070.0    0.768296000
1071.0    0.767718000
1072.0    0.766062000
1073.0    0.764339000
1074.0    0.764314000
1075.0    0.764003000
1076.0    0.765539000
1077.0    0.765518000
1078.0    0.767354000
1079.0    0.769105000
1080.0    0.770091000
1081.0    0.770567000
1082.0    0.771972000
1083.0    0.772781000
1084.0    0.772104000
1085.0    0.770650000
1086.0    0.769629000
1087.0    0.768716000
1088.0    0.767729000
1089.0    0.766775000
1090.0    0.765086000
1091.0    0.764876000
1092.0    0.764826000
1093.0    0.765608000
1094.0    0.766711000
1095.0    0.766607000
1096.0    0.766378000
1097.0    0.767150000
1098.0    0.765335000
1099.0    0.764936000
1100.0    0.764558000
1101.0    0.763018000
1102.0    0.762111000
1103.0    0.761845000
1104.0    0.759403000
1105.0    0.758297000
1106.0    0.757633000
1107.0    0.758762000
1108.0    0.759548000
1109.0    0.759149000
1110.0    0.760116000
1111.0    0.761898000
1112.0    0.762790000
1113.0    0.764164000
1114.0    0.764824000
1115.0    0.765111000
1116.0    0.765797000
1117.0    0.765685000
1118.0    0.766481000
1119.0    0.766073000
1120.0    0.765599000
1121.0    0.765085000
1122.0    0.764606000
1123.0    0.763397000
1124.0    0.764356000
1125.0    0.764453000
1126.0    0.764505000
1127.0    0.764570000
1128.0    0.764677000
1129.0    0.765299000
1130.0    0.765760000
1131.0    0.764412000
1132.0    0.764141000
1133.0    0.764585000
1134.0    0.765030000
1135.0    0.765666000
1136.0    0.766618000
1137.0    0.766268000
1138.0    0.768683000
1139.0    0.769201000
1140.0    0.769047000
1141.0    0.770253000
1142.0    0.771231000
1143.0    0.771295000
1144.0    0.771838000
1145.0    0.771797000
1146.0    0.772130000
1147.0    0.771849000
1148.0    0.771916000
1149.0    0.771936000
1150.0    0.772071000
1151.0    0.772228000
1152.0    0.771691000
1153.0    0.771625000
1154.0    0.771687000
1155.0    0.771839000
1156.0    0.772167000
1157.0    0.771729000
1158.0    0.772509000
1159.0    0.771876000
1160.0    0.771739000
1161.0    0.771358000
1162.0    0.770640000
1163.0    0.769814000
1164.0    0.769249000
1165.0    0.768889000
1166.0    0.769090000
1167.0    0.769448000
1168.0    0.770691000
1169.0    0.771660000
1170.0    0.772596000
1171.0    0.773346000
1172.0    0.774267000
1173.0    0.775809000
1174.0    0.777362000
1175.0    0.777154000
1176.0    0.777179000
1177.0    0.778546000
1178.0    0.778883000
1179.0    0.778211000
1180.0    0.778345000
1181.0    0.777588000
1182.0    0.777934000
1183.0    0.778610000
1184.0    0.779534000
1185.0    0.779834000
1186.0    0.779671000
1187.0    0.780320000
1188.0    0.780489000
1189.0    0.780029000
1190.0    0.780123000
1191.0    0.780544000
1192.0    0.780519000
1193.0    0.780345000
1194.0    0.779736000
1195.0    0.780020000
1196.0    0.781473000
1197.0    0.782485000
1198.0    0.783106000
1199.0    0.783333000
1200.0    0.783925000
1201.0    0.784107000
1202.0    0.784344000
1203.0    0.784312000
1204.0    0.783792000
1205.0    0.783705000
1206.0    0.782905000
1207.0    0.775973000
1208.0    0.761605000
1209.0    0.722729000
1210.0    0.659820000
1211.0    0.560424000
1212.0    0.428003000
1213.0    0.300244000
1214.0    0.212206000
1215.0    0.155895000
1216.0    0.115566000
1217.0    0.088168300
1218.0    0.071166400
1219.0    0.054534400
1220.0    0.038655600
1221.0    0.027860800
1222.0    0.020413400
1223.0    0.015220800
1224.0    0.011708500
1225.0    0.009101220
1226.0    0.007131850
1227.0    0.005768770
1228.0    0.004696020
1229.0    0.003885880
1230.0    0.003268790
1231.0    0.002758680
1232.0    0.002390960
1233.0    0.002083390
1234.0    0.001834220
1235.0    0.001633240
1236.0    0.001470750
1237.0    0.001331080
1238.0    0.001214340
1239.0    0.001115430
1240.0    0.001023680
1241.0    0.000941505
1242.0    0.000867446
1243.0    0.000796623
1244.0    0.000728293
1245.0    0.000662443
