# file: z_DECam.Euclid.pb
# instrument: Euclid
# system: AB
# xtype: wavelength
# ytype: qe
# description: Full system QE
# comment: SPV2 values from SPV02 branch of the Euclid MDB
# comment: MDB file: EUC_MDB_MISSIONCONFIGURATION-SPV02_2018-03-08T140000.00Z_01.01.xml
# comment: MDB variable: ExternalData.BLA.BlancoDECamTotalTrans.z
# url: http://euclid.esac.esa.int/epdb/db/SPV02/
# reference: Euclid Consortium Mission Performance Document, V 2.0
# xref: 918.0 nm
# filter: z_DECam
# xunit: nm
 333.0    0.000
 334.0    0.001
 335.0    0.001
 336.0    0.001
 337.0    0.001
 338.0    0.001
 339.0    0.001
 340.0    0.001
 341.0    0.001
 342.0    0.001
 343.0    0.001
 344.0    0.001
 345.0    0.001
 346.0    0.001
 347.0    0.001
 348.0    0.001
 349.0    0.001
 350.0    0.000
 351.0    0.000
 352.0    0.000
 353.0    0.000
 354.0    0.000
 355.0    0.000
 356.0    0.000
 357.0    0.000
 358.0    0.000
 359.0    0.000
 360.0    0.000
 361.0    0.000
 362.0    0.000
 363.0    0.000
 364.0    0.000
 365.0    0.000
 366.0    0.000
 367.0    0.000
 368.0    0.000
 369.0    0.000
 370.0    0.000
 371.0    0.000
 372.0    0.000
 373.0    0.000
 374.0    0.000
 375.0    0.000
 376.0    0.000
 377.0    0.000
 378.0    0.000
 379.0    0.000
 380.0    0.000
 381.0    0.000
 382.0    0.000
 383.0    0.000
 384.0    0.000
 385.0    0.000
 386.0    0.000
 387.0    0.000
 388.0    0.000
 389.0    0.000
 390.0    0.000
 391.0    0.000
 392.0    0.000
 393.0    0.000
 394.0    0.000
 395.0    0.000
 396.0    0.000
 397.0    0.000
 398.0    0.000
 399.0    0.000
 400.0    0.000
 401.0    0.000
 402.0    0.000
 403.0    0.000
 404.0    0.000
 405.0    0.000
 406.0    0.000
 407.0    0.000
 408.0    0.000
 409.0    0.000
 410.0    0.000
 411.0    0.000
 412.0    0.000
 413.0    0.000
 414.0    0.000
 415.0    0.000
 416.0    0.000
 417.0    0.000
 418.0    0.000
 419.0    0.000
 420.0    0.000
 421.0    0.000
 422.0    0.000
 423.0    0.000
 424.0    0.000
 425.0    0.000
 426.0    0.000
 427.0    0.000
 428.0    0.000
 429.0    0.000
 430.0    0.000
 431.0    0.000
 432.0    0.000
 433.0    0.000
 434.0    0.000
 435.0    0.000
 436.0    0.000
 437.0    0.000
 438.0    0.000
 439.0    0.000
 440.0    0.000
 441.0    0.000
 442.0    0.000
 443.0    0.000
 444.0    0.000
 445.0    0.000
 446.0    0.000
 447.0    0.000
 448.0    0.000
 449.0    0.000
 450.0    0.000
 451.0    0.000
 452.0    0.000
 453.0    0.000
 454.0    0.000
 455.0    0.000
 456.0    0.000
 457.0    0.000
 458.0    0.000
 459.0    0.000
 460.0    0.000
 461.0    0.000
 462.0    0.000
 463.0    0.000
 464.0    0.000
 465.0    0.000
 466.0    0.000
 467.0    0.000
 468.0    0.000
 469.0    0.000
 470.0    0.000
 471.0    0.000
 472.0    0.000
 473.0    0.000
 474.0    0.000
 475.0    0.000
 476.0    0.000
 477.0    0.000
 478.0    0.000
 479.0    0.000
 480.0    0.000
 481.0    0.000
 482.0    0.000
 483.0    0.000
 484.0    0.000
 485.0    0.000
 486.0    0.000
 487.0    0.000
 488.0    0.000
 489.0    0.000
 490.0    0.000
 491.0    0.000
 492.0    0.000
 493.0    0.000
 494.0    0.000
 495.0    0.000
 496.0    0.000
 497.0    0.000
 498.0    0.000
 499.0    0.000
 500.0    0.000
 501.0    0.000
 502.0    0.000
 503.0    0.001
 504.0    0.001
 505.0    0.001
 506.0    0.001
 507.0    0.001
 508.0    0.001
 509.0    0.001
 510.0    0.001
 511.0    0.001
 512.0    0.001
 513.0    0.001
 514.0    0.001
 515.0    0.001
 516.0    0.001
 517.0    0.001
 518.0    0.001
 519.0    0.001
 520.0    0.001
 521.0    0.001
 522.0    0.001
 523.0    0.001
 524.0    0.001
 525.0    0.001
 526.0    0.001
 527.0    0.001
 528.0    0.001
 529.0    0.000
 530.0    0.000
 531.0    0.000
 532.0    0.000
 533.0    0.000
 534.0    0.000
 535.0    0.000
 536.0    0.000
 537.0    0.000
 538.0    0.000
 539.0    0.000
 540.0    0.000
 541.0    0.000
 542.0    0.001
 543.0    0.001
 544.0    0.001
 545.0    0.001
 546.0    0.001
 547.0    0.001
 548.0    0.001
 549.0    0.001
 550.0    0.001
 551.0    0.001
 552.0    0.001
 553.0    0.001
 554.0    0.001
 555.0    0.001
 556.0    0.001
 557.0    0.001
 558.0    0.001
 559.0    0.001
 560.0    0.001
 561.0    0.001
 562.0    0.001
 563.0    0.001
 564.0    0.001
 565.0    0.001
 566.0    0.001
 567.0    0.001
 568.0    0.001
 569.0    0.001
 570.0    0.001
 571.0    0.001
 572.0    0.000
 573.0    0.000
 574.0    0.000
 575.0    0.000
 576.0    0.000
 577.0    0.000
 578.0    0.000
 579.0    0.000
 580.0    0.000
 581.0    0.000
 582.0    0.000
 583.0    0.000
 584.0    0.000
 585.0    0.000
 586.0    0.000
 587.0    0.000
 588.0    0.000
 589.0    0.000
 590.0    0.000
 591.0    0.000
 592.0    0.000
 593.0    0.000
 594.0    0.000
 595.0    0.000
 596.0    0.000
 597.0    0.000
 598.0    0.000
 599.0    0.000
 600.0    0.000
 601.0    0.000
 602.0    0.000
 603.0    0.000
 604.0    0.000
 605.0    0.000
 606.0    0.000
 607.0    0.000
 608.0    0.000
 609.0    0.000
 610.0    0.000
 611.0    0.000
 612.0    0.000
 613.0    0.000
 614.0    0.000
 615.0    0.000
 616.0    0.000
 617.0    0.000
 618.0    0.000
 619.0    0.000
 620.0    0.000
 621.0    0.000
 622.0    0.000
 623.0    0.000
 624.0    0.000
 625.0    0.000
 626.0    0.000
 627.0    0.000
 628.0    0.000
 629.0    0.000
 630.0    0.000
 631.0    0.000
 632.0    0.000
 633.0    0.000
 634.0    0.000
 635.0    0.000
 636.0    0.000
 637.0    0.000
 638.0    0.000
 639.0    0.000
 640.0    0.000
 641.0    0.000
 642.0    0.000
 643.0    0.000
 644.0    0.000
 645.0    0.000
 646.0    0.000
 647.0    0.000
 648.0    0.000
 649.0    0.000
 650.0    0.000
 651.0    0.000
 652.0    0.000
 653.0    0.000
 654.0    0.000
 655.0    0.000
 656.0    0.000
 657.0    0.000
 658.0    0.000
 659.0    0.000
 660.0    0.000
 661.0    0.000
 662.0    0.000
 663.0    0.000
 664.0    0.000
 665.0    0.000
 666.0    0.000
 667.0    0.000
 668.0    0.000
 669.0    0.000
 670.0    0.000
 671.0    0.000
 672.0    0.000
 673.0    0.000
 674.0    0.000
 675.0    0.000
 676.0    0.000
 677.0    0.000
 678.0    0.000
 679.0    0.000
 680.0    0.000
 681.0    0.000
 682.0    0.000
 683.0    0.000
 684.0    0.000
 685.0    0.000
 686.0    0.000
 687.0    0.000
 688.0    0.000
 689.0    0.000
 690.0    0.000
 691.0    0.000
 692.0    0.000
 693.0    0.000
 694.0    0.000
 695.0    0.000
 696.0    0.000
 697.0    0.000
 698.0    0.000
 699.0    0.000
 700.0    0.000
 701.0    0.000
 702.0    0.000
 703.0    0.000
 704.0    0.000
 705.0    0.000
 706.0    0.000
 707.0    0.000
 708.0    0.000
 709.0    0.000
 710.0    0.000
 711.0    0.000
 712.0    0.000
 713.0    0.000
 714.0    0.000
 715.0    0.000
 716.0    0.000
 717.0    0.000
 718.0    0.000
 719.0    0.000
 720.0    0.000
 721.0    0.000
 722.0    0.000
 723.0    0.000
 724.0    0.000
 725.0    0.000
 726.0    0.000
 727.0    0.000
 728.0    0.000
 729.0    0.000
 730.0    0.000
 731.0    0.000
 732.0    0.000
 733.0    0.000
 734.0    0.000
 735.0    0.000
 736.0    0.000
 737.0    0.000
 738.0    0.000
 739.0    0.000
 740.0    0.000
 741.0    0.000
 742.0    0.000
 743.0    0.000
 744.0    0.000
 745.0    0.000
 746.0    0.000
 747.0    0.000
 748.0    0.000
 749.0    0.000
 750.0    0.000
 751.0    0.000
 752.0    0.000
 753.0    0.000
 754.0    0.000
 755.0    0.000
 756.0    0.000
 757.0    0.000
 758.0    0.000
 759.0    0.000
 760.0    0.000
 761.0    0.000
 762.0    0.000
 763.0    0.000
 764.0    0.000
 765.0    0.000
 766.0    0.000
 767.0    0.000
 768.0    0.000
 769.0    0.000
 770.0    0.000
 771.0    0.000
 772.0    0.000
 773.0    0.000
 774.0    0.000
 775.0    0.000
 776.0    0.000
 777.0    0.000
 778.0    0.000
 779.0    0.000
 780.0    0.000
 781.0    0.000
 782.0    0.000
 783.0    0.000
 784.0    0.000
 785.0    0.000
 786.0    0.000
 787.0    0.000
 788.0    0.000
 789.0    0.000
 790.0    0.000
 791.0    0.000
 792.0    0.000
 793.0    0.000
 794.0    0.000
 795.0    0.000
 796.0    0.000
 797.0    0.000
 798.0    0.000
 799.0    0.000
 800.0    0.000
 801.0    0.001
 802.0    0.001
 803.0    0.001
 804.0    0.001
 805.0    0.000
 806.0    0.000
 807.0    0.001
 808.0    0.002
 809.0    0.002
 810.0    0.002
 811.0    0.004
 812.0    0.001
 813.0    0.001
 814.0    0.001
 815.0    0.001
 816.0    0.001
 817.0    0.003
 818.0    0.002
 819.0    0.002
 820.0    0.002
 821.0    0.002
 822.0    0.002
 823.0    0.002
 824.0    0.003
 825.0    0.003
 826.0    0.004
 827.0    0.005
 828.0    0.003
 829.0    0.009
 830.0    0.003
 831.0    0.006
 832.0    0.014
 833.0    0.021
 834.0    0.005
 835.0    0.008
 836.0    0.011
 837.0    0.015
 838.0    0.009
 839.0    0.013
 840.0    0.019
 841.0    0.019
 842.0    0.022
 843.0    0.038
 844.0    0.041
 845.0    0.093
 846.0    0.089
 847.0    0.185
 848.0    0.181
 849.0    0.322
 850.0    0.318
 851.0    0.450
 852.0    0.447
 853.0    0.514
 854.0    0.515
 855.0    0.542
 856.0    0.539
 857.0    0.541
 858.0    0.538
 859.0    0.537
 860.0    0.542
 861.0    0.538
 862.0    0.543
 863.0    0.548
 864.0    0.550
 865.0    0.552
 866.0    0.550
 867.0    0.557
 868.0    0.555
 869.0    0.553
 870.0    0.554
 871.0    0.556
 872.0    0.556
 873.0    0.557
 874.0    0.555
 875.0    0.553
 876.0    0.555
 877.0    0.557
 878.0    0.558
 879.0    0.560
 880.0    0.561
 881.0    0.562
 882.0    0.562
 883.0    0.562
 884.0    0.562
 885.0    0.562
 886.0    0.562
 887.0    0.563
 888.0    0.564
 889.0    0.565
 890.0    0.563
 891.0    0.561
 892.0    0.559
 893.0    0.554
 894.0    0.551
 895.0    0.534
 896.0    0.532
 897.0    0.523
 898.0    0.520
 899.0    0.508
 900.0    0.511
 901.0    0.506
 902.0    0.510
 903.0    0.532
 904.0    0.544
 905.0    0.539
 906.0    0.537
 907.0    0.523
 908.0    0.516
 909.0    0.507
 910.0    0.512
 911.0    0.516
 912.0    0.514
 913.0    0.499
 914.0    0.507
 915.0    0.512
 916.0    0.513
 917.0    0.516
 918.0    0.520
 919.0    0.531
 920.0    0.539
 921.0    0.537
 922.0    0.536
 923.0    0.533
 924.0    0.524
 925.0    0.521
 926.0    0.518
 927.0    0.508
 928.0    0.495
 929.0    0.477
 930.0    0.454
 931.0    0.430
 932.0    0.398
 933.0    0.372
 934.0    0.343
 935.0    0.337
 936.0    0.344
 937.0    0.337
 938.0    0.360
 939.0    0.418
 940.0    0.421
 941.0    0.408
 942.0    0.386
 943.0    0.350
 944.0    0.347
 945.0    0.359
 946.0    0.361
 947.0    0.370
 948.0    0.376
 949.0    0.375
 950.0    0.379
 951.0    0.392
 952.0    0.379
 953.0    0.389
 954.0    0.400
 955.0    0.391
 956.0    0.390
 957.0    0.416
 958.0    0.418
 959.0    0.413
 960.0    0.412
 961.0    0.408
 962.0    0.409
 963.0    0.421
 964.0    0.421
 965.0    0.417
 966.0    0.419
 967.0    0.428
 968.0    0.442
 969.0    0.447
 970.0    0.447
 971.0    0.446
 972.0    0.443
 973.0    0.438
 974.0    0.431
 975.0    0.427
 976.0    0.430
 977.0    0.427
 978.0    0.422
 979.0    0.419
 980.0    0.428
 981.0    0.422
 982.0    0.415
 983.0    0.413
 984.0    0.412
 985.0    0.410
 986.0    0.407
 987.0    0.402
 988.0    0.398
 989.0    0.393
 990.0    0.392
 991.0    0.388
 992.0    0.381
 993.0    0.373
 994.0    0.357
 995.0    0.340
 996.0    0.304
 997.0    0.268
 998.0    0.221
 999.0    0.174
1000.0    0.184
1001.0    0.091
1002.0    0.065
1003.0    0.040
1004.0    0.028
1005.0    0.016
1006.0    0.011
1007.0    0.006
1008.0    0.005
1009.0    0.004
1010.0    0.007
1011.0    0.002
1012.0    0.002
1013.0    0.001
1014.0    0.001
1015.0    0.001
1016.0    0.001
1017.0    0.001
1018.0    0.001
1019.0    0.001
1020.0    0.001
1021.0    0.001
1022.0    0.001
1023.0    0.001
1024.0    0.001
1025.0    0.001
1026.0    0.001
1027.0    0.002
1028.0    0.001
1029.0    0.000
