# file: i.SDSS.pb
# description: Telescope + Instrument + Atmosphere
# airmass: 1.3
# xref: 749.0 nm
# ytype: qe
# reference: Doi et al., 2010, AJ 139. 1628
# filter: i
# url: http://adsabs.harvard.edu/abs/2010AJ....139.1628D
# atmosphere: SDSS-2.5m
# xtype: wavelength
# instrument: SDSS
# system: AB
# xunit: Angstrom
 6580.0    0.000000
 6600.0    0.000200
 6620.0    0.000800
 6640.0    0.001200
 6660.0    0.001700
 6680.0    0.002600
 6700.0    0.004600
 6720.0    0.008000
 6740.0    0.013100
 6760.0    0.022600
 6780.0    0.036500
 6800.0    0.056000
 6820.0    0.083400
 6840.0    0.116200
 6860.0    0.155300
 6880.0    0.195200
 6900.0    0.237700
 6920.0    0.283900
 6940.0    0.322200
 6960.0    0.356500
 6980.0    0.386900
 7000.0    0.410400
 7020.0    0.430100
 7040.0    0.445800
 7060.0    0.456500
 7080.0    0.464800
 7100.0    0.470600
 7120.0    0.476400
 7140.0    0.479100
 7160.0    0.481400
 7180.0    0.482300
 7200.0    0.481500
 7220.0    0.480600
 7240.0    0.477100
 7260.0    0.473200
 7280.0    0.469400
 7300.0    0.465500
 7320.0    0.461700
 7340.0    0.457800
 7360.0    0.453900
 7380.0    0.450500
 7400.0    0.447700
 7420.0    0.444900
 7440.0    0.442100
 7460.0    0.439300
 7480.0    0.436400
 7500.0    0.433500
 7520.0    0.430600
 7540.0    0.426400
 7560.0    0.422000
 7580.0    0.417600
 7600.0    0.413200
 7620.0    0.408800
 7640.0    0.404200
 7660.0    0.399600
 7680.0    0.395100
 7700.0    0.390500
 7720.0    0.386000
 7740.0    0.381500
 7760.0    0.377000
 7780.0    0.372500
 7800.0    0.368000
 7820.0    0.363600
 7840.0    0.361000
 7860.0    0.358600
 7880.0    0.356200
 7900.0    0.353900
 7920.0    0.351500
 7940.0    0.349200
 7960.0    0.346900
 7980.0    0.344900
 8000.0    0.343200
 8020.0    0.341100
 8040.0    0.338800
 8060.0    0.336200
 8080.0    0.332800
 8100.0    0.327900
 8120.0    0.321500
 8140.0    0.304300
 8160.0    0.276300
 8180.0    0.237900
 8200.0    0.185700
 8220.0    0.135500
 8240.0    0.087400
 8260.0    0.057800
 8280.0    0.036000
 8300.0    0.021200
 8320.0    0.014400
 8340.0    0.009400
 8360.0    0.006100
 8380.0    0.002000
 8400.0    0.000000
